aX,aY,aZ,gX,gY,gZ
0.236,1.151,1.259,20.142,-4.578,-61.279
0.238,1.054,1.355,34.851,-13.367,-70.007
0.242,0.865,1.458,47.852,-29.846,-77.026
0.246,0.730,1.518,51.086,-53.101,-79.590
0.229,0.626,1.595,37.231,-77.759,-78.552
0.248,0.602,1.634,6.104,-98.999,-76.233
0.273,0.636,1.601,-34.119,-119.873,-74.402
0.268,0.694,1.543,-67.871,-143.616,-74.219
0.269,0.755,1.455,-87.280,-169.006,-77.820
0.302,0.756,1.351,-96.252,-197.205,-81.970
0.303,0.760,1.263,-92.957,-226.135,-79.834
0.288,0.731,1.173,-83.313,-252.686,-74.585
0.272,0.699,1.129,-73.364,-274.292,-66.467
0.240,0.721,1.082,-68.604,-287.170,-62.134
0.214,0.752,1.035,-69.336,-288.635,-67.078
0.224,0.763,1.002,-70.618,-280.579,-81.726
0.249,0.738,0.958,-72.632,-264.526,-102.295
0.284,0.650,0.935,-75.989,-246.643,-125.305
0.342,0.625,0.884,-83.801,-226.746,-143.616
0.483,0.587,0.778,-96.680,-206.787,-160.889
0.627,0.579,0.667,-105.835,-193.176,-177.368
0.760,0.535,0.522,-110.840,-186.401,-187.927
0.918,0.552,0.430,-115.295,-187.012,-191.040
1.097,0.477,0.233,-127.197,-197.998,-182.983
1.241,0.395,0.015,-134.521,-222.961,-164.001
1.379,0.335,-0.135,-133.606,-256.104,-137.512
1.546,0.250,-0.289,-129.028,-288.086,-105.286
1.722,0.165,-0.445,-126.526,-316.223,-69.275
1.903,0.083,-0.634,-129.517,-341.797,-33.020
2.133,0.084,-0.875,-124.329,-366.089,0.061
2.426,0.175,-1.129,-117.920,-387.024,32.227
2.535,0.379,-1.432,-101.990,-406.189,60.364
2.855,0.692,-1.696,-70.740,-425.720,74.951
2.690,0.975,-2.031,-33.752,-432.556,84.045
2.113,0.964,-2.373,2.441,-431.641,87.280
1.431,1.428,-2.356,43.030,-429.504,83.496
0.512,1.391,-2.867,83.008,-396.118,78.674
-0.089,1.776,-2.801,66.772,-338.440,87.524
-0.598,1.775,-2.709,-10.620,-229.980,110.596
-0.955,1.291,-2.232,-118.225,-107.239,134.949
-0.789,1.358,-1.680,-192.444,0.549,165.894
-0.519,1.376,-1.295,-215.820,83.801,176.208
-0.376,1.198,-0.843,-210.144,137.878,155.579
-0.375,1.105,-0.635,-134.888,162.476,109.375
-0.197,0.818,-0.514,-50.476,161.011,63.843
-0.085,0.635,-0.231,-11.292,134.216,43.884
-0.075,0.500,-0.070,25.208,102.417,31.555
-0.030,0.455,-0.033,60.791,67.017,17.517
-0.012,0.476,-0.040,94.116,29.236,3.357
-0.014,0.516,-0.028,121.338,-7.507,-13.000
-0.033,0.514,-0.080,133.484,-33.813,-32.837
-0.075,0.551,-0.080,126.831,-49.133,-50.049
-0.077,0.628,-0.172,102.417,-53.467,-58.167
-0.086,0.730,-0.254,67.810,-54.565,-57.312
-0.098,0.839,-0.339,33.997,-54.504,-48.035
-0.113,0.921,-0.370,7.263,-54.321,-35.522
-0.127,0.997,-0.375,-5.676,-53.650,-20.996
-0.154,0.997,-0.361,-7.141,-50.903,-5.554
-0.170,1.026,-0.347,-1.160,-46.570,9.521
-0.179,1.041,-0.331,9.277,-40.100,20.691
-0.198,0.978,-0.305,18.921,-32.166,22.644
-0.197,0.939,-0.280,27.222,-22.034,19.470
-0.188,0.934,-0.250,33.447,-10.681,13.489
-0.176,0.961,-0.225,37.842,-0.305,6.042
-0.169,0.985,-0.200,42.480,8.606,-1.526
-0.140,1.005,-0.182,46.570,14.954,-7.141
-0.122,1.007,-0.158,46.875,18.921,-11.841
-0.117,1.005,-0.143,44.556,22.034,-13.733
-0.113,0.985,-0.109,37.781,24.963,-13.550
-0.113,0.954,-0.076,26.672,28.625,-10.132
-0.105,0.937,-0.039,16.296,32.593,-3.174
-0.094,0.939,-0.012,7.019,35.706,6.836
-0.091,0.963,0.021,-3.723,37.415,16.479
-0.089,0.961,0.053,-14.160,37.903,21.484
-0.088,0.940,0.066,-20.508,35.950,23.010
-0.094,0.931,0.070,-20.813,30.334,22.156
-0.092,0.927,0.078,-16.785,22.095,19.653
-0.093,0.932,0.087,-10.803,12.878,16.052
-0.101,0.932,0.088,-4.761,5.066,11.169
-0.104,0.929,0.077,0.305,-0.488,5.676
-0.105,0.938,0.071,3.784,-3.479,0.977
-0.110,0.941,0.064,5.127,-4.150,-2.625
-0.110,0.961,0.043,4.272,-3.174,-5.249
-0.112,0.955,0.014,1.099,-1.770,-8.179
-0.112,0.961,-0.010,-1.099,-0.916,-9.094
-0.109,0.968,-0.022,-4.211,-0.122,-9.277
-0.101,0.985,-0.031,-7.629,0.488,-8.240
-0.097,1.003,-0.038,-13.245,1.892,-8.057
-0.097,1.002,-0.051,-17.883,3.906,-9.277
-0.101,0.996,-0.043,-18.921,5.737,-10.437
-0.107,0.990,-0.044,-19.470,8.179,-11.841
-0.105,0.983,-0.053,-18.494,10.864,-13.916
-0.097,0.968,-0.043,-18.005,12.878,-17.639
-0.094,0.996,-0.046,-19.958,16.113,-21.667
-0.083,1.028,-0.051,-20.752,19.226,-29.114
-0.090,1.051,-0.068,-21.667,21.118,-42.053
-0.078,1.097,-0.068,-21.729,22.095,-60.669
-0.075,1.098,-0.080,-30.945,22.461,-78.857
-0.030,0.992,-0.079,-40.405,23.254,-100.342
-0.039,0.845,-0.080,-51.270,24.963,-117.126
0.013,1.070,-0.114,-56.030,26.978,-129.761
0.005,0.917,-0.120,-60.791,28.015,-137.512
0.099,0.841,-0.130,-73.547,32.227,-131.348
0.105,0.796,-0.139,-72.327,34.851,-103.699
0.109,0.765,-0.164,-56.396,36.377,-57.434
0.093,0.896,-0.167,-28.748,33.447,-10.132
0.084,0.947,-0.133,-9.460,25.940,14.648
0.090,0.958,-0.113,1.465,19.714,22.583
0.086,0.969,-0.098,11.292,13.245,26.489
0.069,0.969,-0.079,18.982,7.874,28.381
0.056,0.979,-0.071,23.987,5.249,27.954
0.049,0.977,-0.067,25.513,4.395,23.499
0.045,0.965,-0.068,24.841,5.371,17.334
0.044,0.964,-0.070,23.132,7.019,12.817
0.044,0.960,-0.064,20.569,8.728,9.705
0.042,0.965,-0.064,16.724,10.681,7.263
0.049,0.967,-0.071,12.634,12.024,5.066
0.057,0.972,-0.082,10.132,11.963,3.479
0.055,0.981,-0.082,9.888,10.010,2.930

1.787,0.351,-0.618,-177.917,-360.657,-21.240
1.885,0.370,-0.741,-158.997,-374.878,-9.644
1.963,0.429,-0.861,-139.648,-385.315,-1.099
1.970,0.497,-0.990,-123.596,-390.869,3.113
1.823,0.522,-1.136,-108.887,-389.465,4.700
1.587,0.567,-1.341,-100.342,-380.920,7.507
1.313,0.585,-1.659,-102.905,-368.835,14.465
1.097,0.872,-2.211,-115.173,-357.971,27.710
0.939,1.219,-2.399,-124.268,-354.675,41.992
0.358,1.373,-2.242,-147.644,-315.552,52.185
-0.218,1.400,-1.915,-202.698,-208.740,75.073
-0.219,1.544,-1.515,-272.522,-81.665,103.760
-0.056,1.641,-1.121,-287.964,16.541,115.479
-0.092,1.698,-0.842,-211.670,81.604,87.952
-0.038,1.732,-0.579,-93.079,135.254,22.888
0.141,1.385,-0.724,1.404,162.231,-32.043
0.213,1.141,-0.946,103.638,136.963,-63.354
0.245,0.743,-0.863,161.743,52.246,-67.383
0.134,0.630,-0.722,193.604,-19.043,-46.570
0.088,0.653,-0.608,203.064,-53.650,-33.691
0.140,0.823,-0.247,191.589,-53.955,-36.438
0.170,0.853,-0.475,186.584,-16.235,-54.199
0.241,0.888,-0.366,150.513,3.967,-60.974
0.284,0.947,-0.394,102.295,14.954,-51.697
0.296,0.996,-0.370,57.800,20.142,-30.701
0.285,1.047,-0.374,25.696,19.897,-5.920
0.267,1.071,-0.387,8.179,13.550,16.296
0.229,1.053,-0.387,0.366,2.563,32.715
0.187,1.034,-0.378,-0.183,-7.263,42.297
0.145,1.011,-0.391,5.127,-13.123,45.837
0.112,0.988,-0.382,11.536,-15.015,44.250
0.093,0.985,-0.364,17.151,-12.451,38.940
0.082,0.985,-0.341,22.644,-6.104,31.250
0.078,0.961,-0.328,28.992,1.465,22.766
0.081,0.916,-0.316,34.485,8.057,16.113
0.083,0.892,-0.289,35.217,13.489,11.780
0.100,0.893,-0.255,32.776,19.043,9.277
0.124,0.895,-0.231,29.968,23.682,8.179
0.138,0.909,-0.203,26.367,26.611,9.094
0.152,0.931,-0.190,22.705,27.527,10.132
0.154,0.931,-0.177,20.142,26.001,11.169
0.140,0.914,-0.155,18.494,22.888,12.451
0.118,0.892,-0.140,17.151,19.775,13.977
0.109,0.870,-0.131,15.137,18.616,16.235
0.096,0.863,-0.113,10.254,19.653,18.372
0.096,0.882,-0.094,4.272,22.766,19.836
0.094,0.885,-0.091,-0.183,26.123,19.531
0.107,0.889,-0.081,-1.953,27.771,18.066
0.122,0.914,-0.079,-0.732,27.344,15.869
0.128,0.914,-0.085,2.197,24.719,12.939
0.125,0.897,-0.091,6.531,19.653,10.437
0.117,0.885,-0.088,10.132,14.099,8.911
0.112,0.885,-0.088,11.902,10.742,7.812
0.109,0.861,-0.089,11.108,9.766,6.897
0.106,0.866,-0.083,8.606,9.644,7.263
0.106,0.873,-0.081,5.920,10.193,8.057
0.103,0.886,-0.075,4.089,10.681,8.789
0.098,0.891,-0.073,3.723,11.780,8.667
0.095,0.895,-0.066,5.371,12.634,7.568
0.091,0.892,-0.054,7.324,14.282,6.104
0.100,0.888,-0.056,8.545,16.296,4.395
0.102,0.895,-0.047,8.789,18.127,2.808
0.116,0.901,-0.043,8.728,19.409,1.282
0.119,0.896,-0.038,8.789,19.775,-0.244
0.121,0.899,-0.031,8.606,19.409,-1.099
0.125,0.901,-0.031,8.301,18.982,-1.831
0.133,0.904,-0.024,8.667,18.005,-2.502
0.136,0.932,-0.004,10.376,17.090,-2.869
0.135,0.936,0.002,12.390,17.273,-3.296
0.129,0.919,-0.002,13.123,17.700,-3.662
0.127,0.905,-0.004,11.719,18.494,-3.479
0.134,0.904,-0.020,7.446,19.470,-3.479
0.131,0.903,0.014,-2.686,20.874,-5.737
0.133,0.920,0.005,-5.798,22.339,-7.812
0.128,0.919,0.012,-11.047,22.949,-11.108
0.128,0.900,0.011,-14.526,24.231,-14.709
0.131,0.928,0.017,-18.250,26.733,-15.686
0.142,0.945,0.018,-23.071,28.625,-18.127
0.134,0.930,0.013,-24.841,28.076,-19.836
0.129,0.898,0.009,-21.240,25.574,-19.531
0.137,0.913,0.018,-15.564,21.790,-16.357
0.136,0.925,0.015,-14.832,19.714,-13.245
0.138,0.946,0.007,-9.766,16.357,-10.254
0.143,0.954,-0.003,-5.676,12.573,-8.850
0.134,0.956,-0.007,-1.221,8.667,-7.874
0.135,0.959,-0.019,2.991,4.578,-7.446
0.115,0.969,-0.024,5.798,1.404,-6.897
0.158,0.968,-0.022,7.751,-0.488,-7.690
0.135,0.967,-0.035,5.493,-0.793,-7.324
0.142,0.984,-0.047,3.235,-1.038,-5.249
0.138,0.993,-0.051,2.014,-1.099,-4.456
0.140,0.993,-0.059,1.587,-1.038,-4.028
0.139,0.993,-0.067,2.075,-1.160,-3.296
0.133,0.991,-0.079,2.869,-0.916,-2.014
0.126,0.987,-0.090,3.723,-0.610,-1.343
0.124,0.983,-0.096,4.333,-0.854,-1.404
0.125,0.982,-0.100,5.432,-0.854,-2.136
0.124,0.981,-0.100,6.836,-0.488,-3.357
0.129,0.983,-0.102,8.850,-0.305,-4.333
0.135,0.990,-0.110,11.353,-0.305,-5.676
0.134,0.982,-0.115,14.343,-0.549,-7.935
0.133,0.973,-0.115,17.029,-1.221,-10.559
0.131,0.974,-0.116,18.616,-1.282,-12.451
0.131,0.958,-0.111,18.738,-0.427,-14.526
0.135,0.963,-0.113,18.250,0.916,-15.625
0.134,0.951,-0.106,15.808,2.380,-17.029
0.146,0.948,-0.106,13.489,3.784,-17.456
0.144,0.946,-0.104,12.573,4.456,-15.564
0.148,0.941,-0.099,12.390,4.578,-12.939
0.152,0.940,-0.103,13.489,4.822,-8.545
0.151,0.946,-0.107,14.038,4.272,-4.272
0.148,0.957,-0.103,13.611,3.296,-2.136
0.148,0.968,-0.095,14.404,2.991,-1.099
0.147,0.972,-0.088,15.808,4.272,-0.732
0.150,0.970,-0.087,16.418,6.226,-0.671
0.153,0.972,-0.087,16.541,8.179,-0.305
0.150,0.963,-0.088,16.052,9.644,-0.122
0.152,0.959,-0.083,15.442,10.620,0.061
0.161,0.976,-0.071,14.160,11.658,0.183

2.195,0.127,-0.534,-176.208,-349.731,38.635
2.241,0.182,-0.714,-149.231,-356.140,40.466
2.161,0.239,-0.943,-122.070,-368.347,40.039
1.963,0.345,-1.110,-100.220,-386.963,36.743
1.697,0.500,-1.160,-80.078,-400.513,31.982
1.433,0.554,-1.695,-50.293,-392.639,26.062
1.466,0.577,-2.258,-39.917,-391.052,22.522
1.375,0.962,-2.100,-37.231,-391.785,17.700
0.435,1.301,-1.988,-44.006,-315.979,10.193
-0.391,1.543,-1.625,-91.919,-157.532,18.982
-0.200,1.661,-1.314,-158.508,7.446,34.485
0.201,1.582,-1.140,-190.796,125.122,41.077
0.395,1.458,-1.031,-175.049,199.097,35.889
0.573,1.502,-0.946,-134.949,230.896,22.156
0.655,1.261,-0.767,-51.880,217.163,-4.944
0.569,1.082,-0.846,72.327,174.316,-25.757
0.525,0.792,-0.892,154.114,98.450,-13.367
0.401,0.579,-0.607,188.843,3.052,18.616
0.278,0.607,-0.123,199.768,-46.814,43.457
0.237,0.696,-0.300,220.520,-35.583,47.974
0.242,0.663,-0.185,199.707,-27.344,39.429
0.260,0.652,-0.189,162.659,-18.250,33.569
0.261,0.661,-0.203,117.249,-8.423,30.945
0.245,0.691,-0.239,65.674,2.808,27.649
0.251,0.741,-0.265,16.235,14.282,22.278
0.253,0.814,-0.281,-20.325,21.362,16.602
0.255,0.895,-0.292,-40.039,21.729,13.733
0.245,0.943,-0.294,-43.640,18.127,14.709
0.238,0.990,-0.297,-37.231,13.855,18.494
0.224,1.005,-0.312,-25.024,10.498,22.095
0.219,0.982,-0.312,-10.803,6.958,23.987
0.201,0.947,-0.329,5.310,4.089,25.085
0.182,0.908,-0.319,16.113,3.479,25.513
0.173,0.885,-0.315,22.705,5.371,25.940
0.172,0.875,-0.302,27.283,7.874,26.489
0.160,0.860,-0.288,28.748,10.803,25.818
0.136,0.867,-0.251,27.466,14.343,23.621
0.130,0.881,-0.218,25.635,19.287,19.653
0.143,0.875,-0.218,24.109,24.292,14.465
0.144,0.880,-0.191,21.606,26.672,10.071
0.152,0.906,-0.165,19.958,27.222,7.385
0.157,0.922,-0.147,19.653,26.428,6.042
0.154,0.921,-0.133,20.386,24.048,6.165
0.157,0.918,-0.124,21.301,20.874,8.240
0.157,0.911,-0.112,22.095,16.663,11.292
0.144,0.900,-0.098,22.644,12.817,14.282
0.127,0.883,-0.090,22.339,10.620,16.541
0.129,0.874,-0.090,21.179,10.376,17.761
0.135,0.888,-0.084,19.165,11.108,17.517
0.137,0.884,-0.084,17.090,12.268,15.686
0.120,0.846,-0.086,14.038,12.878,12.085
0.117,0.826,-0.095,9.155,14.771,8.728
0.113,0.829,-0.102,2.808,17.151,6.042
0.109,0.854,-0.097,-2.136,18.616,4.028
0.122,0.892,-0.099,-3.601,18.677,2.380
0.131,0.916,-0.100,-1.770,17.395,0.732
0.131,0.918,-0.105,2.502,14.709,-0.671
0.133,0.918,-0.107,6.897,11.475,-1.160
0.138,0.917,-0.112,10.437,8.728,-1.465
0.140,0.921,-0.113,12.634,7.690,-1.099
0.140,0.926,-0.115,13.550,8.118,-0.732
0.143,0.935,-0.110,13.245,9.338,-1.099
0.142,0.933,-0.108,13.123,10.986,-1.770
0.140,0.919,-0.109,12.695,12.451,-2.869
0.140,0.916,-0.104,11.169,14.404,-3.662
0.150,0.921,-0.101,8.545,16.907,-4.211
0.156,0.920,-0.098,5.493,18.921,-5.371
0.157,0.929,-0.090,2.686,20.020,-6.836
0.167,0.958,-0.074,2.380,20.264,-8.118
0.178,0.975,-0.069,3.113,20.691,-10.071
0.169,0.960,-0.058,2.441,21.057,-13.184
0.159,0.968,-0.048,-0.305,21.179,-16.113
0.158,0.952,-0.067,-1.648,20.691,-18.372
0.151,0.938,-0.048,1.099,21.912,-18.005
0.156,0.930,-0.050,-0.610,23.987,-17.151
0.167,0.931,-0.039,-6.409,26.855,-16.785
0.178,0.942,-0.054,-6.409,28.137,-15.015
0.185,0.952,-0.044,-11.047,28.198,-14.099
0.188,0.952,-0.047,-11.719,27.100,-13.184
0.186,0.960,-0.048,-10.376,24.414,-11.841
0.170,0.958,-0.042,-5.493,20.691,-9.827
0.148,0.981,-0.051,0.061,17.700,-7.996
0.183,0.959,-0.053,5.920,15.442,-7.507
0.175,0.960,-0.061,9.277,14.221,-5.737
0.177,0.968,-0.068,13.611,12.634,-3.723
0.182,0.969,-0.063,16.602,11.108,-2.991
0.178,0.969,-0.058,18.066,10.681,-3.052
0.178,0.967,-0.058,18.311,10.986,-3.357
0.181,0.957,-0.064,17.822,11.719,-3.479
0.183,0.942,-0.074,17.090,12.512,-3.296
0.189,0.945,-0.079,15.503,12.756,-3.418
0.192,0.952,-0.083,13.611,12.085,-4.089
0.196,0.954,-0.081,12.329,11.047,-5.005
0.193,0.961,-0.076,12.329,9.521,-5.859
0.189,0.969,-0.078,13.000,9.155,-6.653
0.191,0.964,-0.080,14.038,9.338,-7.507
0.190,0.962,-0.079,15.137,9.460,-7.812
0.186,0.957,-0.079,15.991,10.254,-8.118
0.181,0.948,-0.074,15.930,11.169,-8.545
0.181,0.949,-0.079,15.625,12.451,-9.277
0.185,0.932,-0.078,14.648,13.306,-10.254
0.193,0.926,-0.077,13.184,13.672,-10.681
0.194,0.936,-0.076,12.512,13.672,-11.230
0.200,0.933,-0.084,13.306,13.184,-11.963
0.204,0.929,-0.093,14.954,11.292,-11.902
0.209,0.933,-0.100,17.151,8.667,-10.010
0.210,0.927,-0.099,18.677,6.042,-7.202
0.211,0.931,-0.103,18.799,4.456,-4.272
0.215,0.929,-0.113,17.761,4.456,-1.953
0.223,0.931,-0.109,15.930,4.517,-0.305
0.216,0.926,-0.104,13.733,5.737,1.221
0.214,0.926,-0.104,11.841,8.362,3.052
0.208,0.930,-0.102,10.376,11.719,5.005
0.204,0.931,-0.106,9.521,14.648,6.653
0.205,0.944,-0.105,9.827,15.747,8.057
0.205,0.953,-0.100,11.108,16.479,8.972
0.198,0.954,-0.091,12.695,17.395,8.667
0.197,0.954,-0.089,14.282,18.372,7.568
0.198,0.946,-0.084,15.259,19.165,6.287

1.983,0.477,-0.456,-127.380,-348.816,39.734
1.907,0.459,-0.701,-131.470,-352.051,43.335
1.721,0.477,-0.946,-134.766,-359.741,45.410
1.522,0.590,-1.139,-136.108,-364.319,45.898
1.333,0.759,-1.293,-136.047,-355.408,42.664
1.175,0.849,-1.815,-123.779,-327.393,33.203
1.147,1.097,-2.229,-115.845,-299.988,17.090
0.869,1.351,-2.181,-117.004,-270.325,-6.653
0.234,1.389,-2.035,-139.465,-184.998,-27.649
-0.088,1.424,-1.722,-181.030,-53.467,-25.269
0.038,1.471,-1.460,-197.876,70.923,-9.094
0.261,1.579,-1.310,-174.866,151.794,-4.639
0.457,1.366,-1.109,-115.967,183.228,-11.780
0.484,0.935,-1.086,-5.981,176.453,-8.667
0.480,0.968,-1.215,107.971,144.165,15.320
0.443,0.976,-0.996,151.306,74.646,56.458
0.327,0.870,-0.598,159.851,8.911,71.289
0.232,0.736,-0.517,193.726,-16.479,71.777
0.191,0.703,-0.370,214.050,-28.076,64.758
0.150,0.670,-0.219,214.294,-28.870,51.880
0.148,0.569,-0.248,207.642,-16.113,36.377
0.160,0.536,-0.214,172.424,-5.615,25.024
0.171,0.567,-0.210,120.605,6.714,18.127
0.178,0.620,-0.203,64.026,19.653,13.977
0.186,0.679,-0.195,14.893,28.625,12.207
0.193,0.762,-0.183,-16.541,32.593,13.855
0.187,0.813,-0.178,-33.997,28.870,18.311
0.171,0.845,-0.197,-38.391,21.240,23.560
0.140,0.861,-0.193,-32.776,11.414,28.198
0.116,0.866,-0.202,-19.531,2.991,30.151
0.092,0.840,-0.216,-6.531,-1.648,28.503
0.068,0.834,-0.208,4.028,-3.418,24.902
0.070,0.826,-0.213,14.160,-2.686,20.081
0.071,0.801,-0.224,23.010,-1.160,15.259
0.059,0.791,-0.200,25.818,0.793,11.597
0.070,0.803,-0.186,24.109,6.653,8.484
0.088,0.829,-0.176,20.020,14.221,5.493
0.106,0.866,-0.142,14.526,20.081,3.845
0.117,0.889,-0.121,10.986,24.231,2.991
0.122,0.887,-0.103,8.362,25.879,3.723
0.125,0.893,-0.098,6.775,25.146,6.042
0.120,0.880,-0.096,5.249,21.729,9.216
0.106,0.883,-0.081,2.502,17.273,12.390
0.090,0.912,-0.052,1.343,14.587,14.282
0.077,0.911,-0.038,3.357,15.076,13.733
0.065,0.893,-0.019,6.348,15.869,12.329
0.067,0.897,-0.015,8.911,16.968,10.864
0.068,0.886,-0.034,10.864,17.334,8.789
0.069,0.881,-0.019,10.925,15.381,5.798
0.083,0.890,-0.022,10.986,14.221,2.747
0.088,0.894,-0.042,10.315,12.878,0.122
0.104,0.904,-0.049,8.301,11.353,-1.648
0.114,0.923,-0.067,4.761,10.315,-3.357
0.122,0.935,-0.080,2.075,8.545,-4.211
0.120,0.954,-0.082,0.305,6.714,-4.456
0.120,0.950,-0.098,-0.122,6.226,-4.517
0.111,0.935,-0.090,-1.282,5.127,-4.211
0.099,0.930,-0.062,-3.845,5.737,-3.174
0.099,0.914,-0.072,-4.761,9.644,-1.892
0.106,0.917,-0.081,-6.348,13.184,-0.427
0.112,0.929,-0.081,-9.094,14.648,0.305
0.118,0.958,-0.076,-10.193,14.893,-0.366
0.116,0.970,-0.067,-8.728,14.404,-2.197
0.113,0.960,-0.070,-5.615,13.611,-4.578
0.117,0.957,-0.068,-2.441,13.000,-6.958
0.117,0.974,-0.057,-1.160,13.123,-9.216
0.120,0.984,-0.048,-1.465,14.160,-11.597
0.126,0.991,-0.043,-3.052,15.625,-14.404
0.131,0.991,-0.032,-5.432,16.541,-17.395
0.132,0.987,-0.018,-7.629,17.029,-19.592
0.136,0.978,-0.007,-10.681,17.883,-20.691
0.138,0.972,-0.037,-13.062,19.104,-20.691
0.146,0.963,-0.016,-19.348,18.616,-21.179
0.147,0.985,-0.037,-20.752,17.700,-20.081
0.146,0.978,-0.034,-24.902,16.174,-20.386
0.146,0.977,-0.047,-25.574,15.442,-19.897
0.150,0.957,-0.034,-29.480,13.977,-19.714
0.151,0.979,-0.060,-24.048,12.817,-15.686
0.149,0.967,-0.049,-22.278,10.986,-12.817
0.152,0.959,-0.070,-17.090,9.094,-8.118
0.156,0.953,-0.085,-13.062,6.104,-4.272
0.156,0.969,-0.098,-9.460,2.380,-1.648
0.157,0.976,-0.113,-7.019,-1.282,-0.977
0.155,0.974,-0.127,-4.089,-5.005,-1.404
0.151,0.967,-0.130,-1.160,-8.728,-2.563
0.147,0.972,-0.134,1.770,-10.925,-3.418
0.151,0.967,-0.137,4.211,-11.047,-3.906
0.153,0.962,-0.131,4.700,-10.071,-4.089
0.151,0.964,-0.131,4.272,-7.935,-3.723
0.160,1.012,-0.146,4.150,-5.066,-2.686
0.155,0.968,-0.132,5.371,-2.747,-1.648
0.144,0.967,-0.137,3.723,1.526,-1.282
0.178,0.977,-0.160,0.427,4.333,-0.610
0.173,0.980,-0.159,1.770,1.160,-1.404
0.162,0.962,-0.161,5.127,-2.075,-1.587
0.156,0.963,-0.171,7.019,-2.808,-1.282
0.149,0.968,-0.172,8.789,-2.930,-1.282
0.147,0.963,-0.175,10.742,-2.930,-1.892
0.148,0.957,-0.185,13.123,-2.747,-2.930
0.146,0.947,-0.181,15.137,-2.258,-4.028
0.151,0.960,-0.188,16.907,-0.732,-4.517
0.169,0.954,-0.191,18.250,1.099,-5.798
0.167,0.949,-0.193,19.104,2.625,-5.859
0.165,0.956,-0.194,19.409,3.662,-5.798
0.175,0.946,-0.181,18.860,4.517,-6.836
0.183,0.934,-0.187,17.273,5.859,-6.104
0.178,0.934,-0.198,14.160,7.141,-2.991
0.180,0.927,-0.186,9.583,6.897,-0.671
0.183,0.936,-0.191,5.859,7.385,1.526
0.194,0.943,-0.215,4.395,8.362,3.540
0.195,0.952,-0.234,3.235,8.545,4.883
0.194,0.971,-0.251,3.357,9.155,5.676
0.185,0.977,-0.254,3.723,11.536,6.165
0.183,0.979,-0.256,4.395,16.052,6.653
0.186,0.977,-0.261,4.944,21.484,6.836
0.196,0.973,-0.272,6.287,26.123,7.263
0.205,0.980,-0.263,7.507,28.687,8.118
0.209,0.979,-0.255,10.071,31.006,9.216
0.221,0.957,-0.250,12.756,33.264,10.559

1.676,0.326,-0.893,-84.900,-304.565,93.445
1.563,0.514,-1.045,-50.415,-329.712,81.665
1.428,0.876,-0.790,-9.644,-343.079,56.091
1.271,0.957,-1.198,51.941,-313.354,13.550
1.181,0.966,-1.416,79.773,-276.672,-32.898
1.169,0.953,-1.788,74.097,-249.695,-73.364
1.103,1.225,-1.972,55.359,-219.727,-103.699
0.596,1.256,-1.854,13.123,-166.687,-127.808
0.071,1.241,-1.570,-50.720,-77.515,-128.235
0.077,1.391,-1.275,-109.985,27.222,-98.694
0.225,1.506,-1.059,-137.512,116.882,-66.223
0.375,1.348,-0.935,-131.165,172.241,-49.866
0.507,1.073,-0.745,-80.872,187.378,-24.048
0.515,0.974,-0.801,5.615,172.852,23.499
0.472,1.020,-0.759,78.735,122.192,71.350
0.408,0.981,-0.554,117.798,53.589,91.797
0.319,0.824,-0.473,158.752,-2.563,90.759
0.211,0.718,-0.324,188.599,-42.786,78.003
0.131,0.641,-0.167,203.430,-57.922,60.425
0.119,0.615,-0.221,208.984,-44.006,41.687
0.119,0.603,-0.172,182.739,-26.672,26.489
0.130,0.621,-0.155,145.142,-9.766,13.916
0.165,0.675,-0.130,101.990,4.456,3.357
0.201,0.701,-0.140,54.688,16.907,-5.249
0.231,0.768,-0.134,10.010,25.330,-10.559
0.262,0.866,-0.128,-23.682,29.480,-11.658
0.273,0.946,-0.142,-42.603,28.503,-9.155
0.278,0.999,-0.151,-47.729,21.240,-4.578
0.265,1.014,-0.160,-44.189,11.597,0.366
0.232,1.006,-0.182,-35.095,2.563,5.188
0.188,0.979,-0.190,-23.254,-4.639,8.911
0.150,0.960,-0.183,-12.207,-8.240,11.108
0.129,0.948,-0.192,-1.770,-6.042,12.207
0.125,0.953,-0.185,7.935,-1.282,11.902
0.135,0.956,-0.174,16.479,4.639,10.376
0.146,0.942,-0.159,23.804,10.376,8.606
0.164,0.933,-0.140,28.381,15.137,7.324
0.189,0.920,-0.123,30.884,19.592,7.019
0.183,0.928,-0.106,29.480,22.705,7.324
0.191,0.924,-0.091,26.917,24.902,7.507
0.187,0.910,-0.068,24.292,23.865,7.568
0.169,0.903,-0.034,22.461,21.545,8.362
0.165,0.923,-0.018,21.118,19.775,9.705
0.155,0.920,-0.010,19.714,17.700,10.803
0.153,0.896,-0.011,17.944,14.099,10.681
0.145,0.861,-0.021,13.977,10.681,10.437
0.123,0.854,-0.018,6.104,9.155,9.644
0.123,0.862,-0.022,-1.160,10.315,8.301
0.136,0.880,-0.040,-6.531,12.329,6.714
0.151,0.902,-0.059,-9.949,13.367,4.761
0.164,0.908,-0.081,-11.536,13.367,2.380
0.162,0.922,-0.090,-11.536,11.780,0.427
0.158,0.927,-0.088,-9.827,9.399,-1.465
0.153,0.923,-0.099,-6.287,7.874,-3.235
0.150,0.922,-0.102,-3.418,6.165,-4.089
0.151,0.924,-0.104,-0.732,4.517,-4.761
0.154,0.929,-0.103,1.099,3.357,-6.042
0.155,0.927,-0.101,1.099,2.991,-7.812
0.164,0.916,-0.106,0.061,3.113,-9.216
0.169,0.921,-0.097,-2.075,3.418,-9.949
0.176,0.932,-0.096,-5.066,5.127,-10.193
0.184,0.949,-0.100,-8.484,7.385,-10.071
0.186,0.967,-0.101,-11.597,9.094,-10.559
0.190,0.987,-0.112,-13.367,10.681,-11.475
0.188,0.975,-0.111,-13.794,11.414,-13.306
0.179,0.979,-0.105,-13.306,11.292,-14.160
0.181,0.985,-0.113,-13.733,12.695,-15.320
0.182,0.983,-0.110,-15.625,14.221,-16.968
0.193,0.976,-0.118,-18.433,15.198,-18.738
0.199,0.969,-0.122,-20.569,14.954,-19.348
0.202,0.983,-0.126,-19.836,13.916,-18.250
0.208,0.972,-0.137,-17.822,13.489,-16.357
0.216,0.960,-0.147,-14.221,12.268,-13.306
0.214,0.957,-0.149,-10.071,11.230,-8.484
0.219,0.948,-0.157,-8.301,10.681,-4.822
0.215,0.947,-0.156,-6.775,9.949,-1.343
0.211,0.951,-0.158,-6.165,9.644,1.831
0.209,0.955,-0.162,-5.493,10.254,4.761
0.199,0.953,-0.169,-4.822,11.047,6.897
0.193,0.945,-0.172,-3.784,11.108,8.179
0.185,0.931,-0.177,-2.625,10.681,8.789
0.177,0.927,-0.174,-1.465,9.644,8.850
0.171,0.928,-0.175,0.549,8.484,8.301
0.168,0.936,-0.170,2.869,7.446,7.080
0.169,0.941,-0.169,5.249,7.141,4.883
0.174,0.942,-0.163,8.240,6.775,2.136
0.169,0.944,-0.156,11.414,6.958,-0.488
0.172,0.933,-0.154,13.489,7.751,-2.563
0.176,0.920,-0.151,13.733,8.118,-3.540
0.175,0.919,-0.146,12.634,8.118,-3.845
0.178,0.913,-0.146,11.108,7.935,-3.967
0.177,0.918,-0.142,9.583,7.324,-4.028
0.176,0.930,-0.136,9.094,6.592,-4.211
0.172,0.931,-0.137,8.850,6.531,-4.517
0.178,0.924,-0.138,8.850,5.920,-5.005
0.174,0.932,-0.134,8.850,4.944,-5.493
0.170,0.926,-0.135,8.667,4.456,-5.981
0.169,0.930,-0.136,8.057,4.761,-6.592
0.169,0.944,-0.143,8.240,5.432,-7.019
0.168,0.939,-0.150,9.277,5.249,-8.667
0.187,0.907,-0.151,10.925,4.272,-10.681
0.179,0.921,-0.155,11.902,3.662,-10.681
0.182,0.897,-0.147,12.512,2.319,-10.437
0.192,0.905,-0.166,14.160,1.099,-9.094
0.188,0.938,-0.157,15.930,-0.671,-6.897
0.197,0.947,-0.160,17.212,-2.075,-5.981
0.208,0.954,-0.167,18.616,-2.319,-5.493
0.213,0.961,-0.164,18.921,-2.136,-4.761
0.223,0.974,-0.159,18.738,-1.038,-4.272
0.233,0.988,-0.158,18.005,-0.061,-3.784
0.241,0.985,-0.157,18.005,0.183,-2.747
0.226,0.974,-0.138,16.479,-0.793,-1.953
0.216,0.964,-0.133,14.709,-0.305,-0.061
0.218,0.961,-0.123,12.329,1.221,2.563
0.204,0.958,-0.120,8.850,4.150,5.554
0.210,0.955,-0.132,4.333,7.202,7.629
0.208,0.967,-0.129,1.160,7.874,8.728
0.192,0.970,-0.125,-0.732,6.226,8.850
0.187,0.969,-0.119,-0.244,4.517,8.118

1.438,0.378,-0.835,-109.924,-360.229,8.911
1.367,0.403,-0.959,-92.407,-366.150,4.456
1.279,0.635,-1.066,-74.707,-366.455,0.732
1.079,0.744,-1.340,-62.805,-360.474,-6.592
1.003,0.865,-1.727,-59.021,-358.643,-14.648
1.057,1.178,-1.902,-54.871,-363.098,-21.301
0.682,1.287,-1.756,-51.392,-348.145,-33.142
0.058,1.187,-1.460,-76.111,-278.748,-35.706
-0.280,1.185,-1.091,-130.432,-160.828,-9.949
-0.176,1.205,-0.745,-191.040,-35.095,24.414
0.003,1.253,-0.501,-222.900,70.984,54.016
0.152,1.295,-0.374,-212.341,152.527,70.618
0.276,1.281,-0.337,-148.560,203.369,72.937
0.404,1.132,-0.645,-51.697,211.853,65.613
0.486,1.002,-0.821,17.639,155.823,59.326
0.546,1.071,-0.653,55.603,61.829,47.119
0.399,0.989,-0.569,90.515,-33.447,18.738
0.246,0.767,-0.450,115.356,-110.291,-16.602
0.166,0.717,-0.374,126.709,-149.048,-39.124
0.137,0.718,-0.159,127.808,-148.437,-50.232
0.140,0.729,-0.305,126.770,-113.342,-49.866
0.197,0.730,-0.327,103.943,-70.496,-36.926
0.220,0.801,-0.353,62.561,-39.551,-17.395
0.242,0.828,-0.383,27.832,-12.939,-5.066
0.246,0.864,-0.395,1.038,7.812,1.282
0.247,0.902,-0.368,-16.541,22.461,5.981
0.249,0.936,-0.333,-25.940,32.715,11.169
0.251,0.949,-0.305,-25.757,38.940,16.663
0.264,0.951,-0.293,-17.639,39.246,22.095
0.286,0.966,-0.288,-4.395,33.813,25.940
0.284,0.987,-0.256,9.888,23.010,27.283
0.265,0.971,-0.230,24.902,10.254,25.085
0.231,0.930,-0.203,39.734,0.183,20.325
0.197,0.874,-0.175,50.293,-3.906,14.832
0.192,0.830,-0.153,54.199,-1.953,10.010
0.195,0.809,-0.135,49.683,4.578,6.775
0.203,0.821,-0.112,39.001,11.414,4.517
0.213,0.858,-0.094,29.297,15.808,2.380
0.224,0.876,-0.082,23.682,16.968,-0.244
0.229,0.890,-0.061,21.057,16.052,-2.136
0.207,0.863,-0.036,19.653,15.015,-2.869
0.224,0.861,-0.032,18.799,15.564,-1.892
0.237,0.888,-0.031,16.663,15.869,-0.488
0.238,0.903,-0.036,13.794,13.977,-0.488
0.245,0.918,-0.042,12.695,10.193,-1.648
0.235,0.906,-0.035,11.047,5.798,-2.747
0.236,0.899,-0.027,8.728,2.808,-2.808
0.232,0.893,-0.014,5.066,1.343,-2.136
0.228,0.886,-0.009,0.610,0.854,-1.648
0.218,0.900,-0.002,-3.845,0.854,-1.587
0.221,0.918,-0.011,-7.507,0.916,-2.136
0.227,0.931,-0.029,-8.972,0.427,-3.113
0.228,0.968,-0.037,-9.399,-0.244,-3.906
0.234,0.978,-0.062,-9.644,0.000,-4.944
0.239,0.971,-0.072,-10.742,0.427,-5.798
0.237,0.984,-0.077,-12.329,1.160,-5.493
0.243,0.990,-0.088,-12.390,2.319,-5.066
0.245,0.991,-0.090,-12.268,2.991,-4.883
0.236,0.990,-0.093,-11.841,3.723,-5.371
0.241,0.987,-0.098,-10.620,4.517,-6.165
0.252,0.983,-0.098,-9.827,5.310,-6.653
0.253,0.976,-0.097,-10.437,6.348,-7.385
0.257,0.978,-0.094,-11.902,7.385,-8.057
0.272,0.977,-0.107,-12.085,7.568,-9.155
0.277,0.973,-0.113,-12.085,6.531,-10.681
0.271,0.972,-0.113,-10.803,5.920,-11.902
0.263,0.953,-0.114,-10.742,7.080,-12.207
0.271,0.948,-0.117,-12.756,9.399,-12.085
0.271,0.929,-0.115,-15.381,11.902,-11.414
0.271,0.925,-0.113,-17.151,13.367,-10.132
0.267,0.921,-0.109,-20.020,14.648,-9.094
0.262,0.901,-0.115,-22.278,15.808,-7.629
0.260,0.896,-0.098,-21.973,16.357,-4.272
0.269,0.915,-0.112,-18.738,14.893,0.305
0.278,0.929,-0.125,-15.869,10.742,3.784
0.281,0.941,-0.132,-11.719,5.859,5.310
0.275,0.944,-0.138,-6.531,0.854,5.493
0.259,0.931,-0.136,-2.808,-2.136,4.333
0.248,0.917,-0.146,-0.549,-2.747,2.991
0.244,0.903,-0.154,1.099,-1.709,2.502
0.246,0.909,-0.146,1.343,0.122,3.235
0.254,0.925,-0.145,1.099,2.747,4.272
0.264,0.927,-0.140,0.061,5.249,4.639
0.274,0.924,-0.149,-0.671,6.592,4.150
0.279,0.930,-0.150,-0.549,5.676,3.723
0.273,0.929,-0.142,0.488,2.625,3.113
0.262,0.921,-0.128,1.770,-0.793,2.930
0.252,0.923,-0.118,2.869,-3.479,3.540
0.248,0.933,-0.118,3.113,-3.906,4.700
0.247,0.932,-0.127,2.625,-2.869,5.127
0.248,0.929,-0.140,1.892,-1.709,5.005
0.245,0.928,-0.148,1.343,-0.916,4.333
0.242,0.927,-0.159,1.282,-0.549,3.235
0.241,0.933,-0.168,2.014,-0.854,1.892
0.240,0.942,-0.176,3.357,-1.648,-0.244
0.241,0.944,-0.189,5.066,-2.136,-2.502
0.252,0.958,-0.199,7.996,-2.502,-4.089
0.257,0.980,-0.195,10.803,-2.625,-5.371
0.268,0.946,-0.210,13.672,-2.686,-7.874
0.262,0.941,-0.208,15.137,-3.296,-6.531
0.251,0.909,-0.188,15.381,-2.991,-4.700
0.246,0.917,-0.190,14.221,-1.587,-1.343
0.243,0.914,-0.184,12.573,-0.427,1.465
0.240,0.916,-0.179,11.597,0.427,2.625
0.237,0.926,-0.164,10.925,1.404,2.808
0.243,0.918,-0.164,11.475,2.747,2.686
0.248,0.918,-0.167,12.512,3.174,2.991
0.252,0.917,-0.171,13.367,2.686,3.296
0.260,0.929,-0.169,13.916,1.465,3.845
0.259,0.936,-0.171,13.855,0.549,3.967
0.260,0.934,-0.176,13.306,0.427,3.906
0.257,0.937,-0.169,12.451,0.977,4.395
0.249,0.936,-0.159,11.047,2.686,4.944
0.246,0.931,-0.160,9.460,5.188,5.676
0.250,0.930,-0.164,8.057,7.446,6.348
0.252,0.934,-0.165,6.470,8.789,6.653
0.263,0.937,-0.173,5.371,9.033,6.470
0.273,0.942,-0.188,5.615,7.935,5.920
0.274,0.948,-0.195,5.737,5.432,5.127

1.607,0.582,-0.458,51.453,-281.616,4.578
1.521,0.720,-0.620,69.824,-285.034,-14.648
1.415,0.734,-0.965,79.590,-281.982,-32.898
1.415,0.630,-1.479,70.740,-282.959,-49.438
1.480,0.797,-1.720,54.382,-297.791,-65.369
0.892,1.041,-1.600,43.335,-294.617,-87.280
0.115,1.229,-1.407,11.353,-227.844,-97.046
-0.128,1.316,-1.063,-68.237,-97.229,-79.102
-0.137,1.271,-0.751,-157.410,43.762,-52.185
-0.052,1.370,-0.604,-204.956,160.767,-17.212
0.196,1.610,-0.492,-193.054,234.497,7.507
0.462,1.411,-0.282,-119.141,250.000,21.301
0.729,1.363,-0.630,38.940,215.149,31.433
0.919,1.029,-0.970,147.339,134.338,41.077
0.918,0.886,-0.703,152.466,2.380,41.321
0.491,0.621,-0.398,137.634,-114.685,27.893
0.173,0.545,0.245,152.954,-167.603,21.790
0.130,0.577,-0.229,217.896,-127.441,22.278
0.107,0.593,-0.119,175.354,-103.455,21.729
0.145,0.625,-0.147,112.976,-66.895,18.372
0.236,0.728,-0.195,48.889,-31.006,9.705
0.276,0.821,-0.233,-5.615,-3.723,-1.343
0.284,0.884,-0.284,-46.875,13.000,-10.193
0.309,0.935,-0.323,-69.824,21.545,-14.648
0.328,1.015,-0.313,-73.547,22.583,-14.526
0.317,1.067,-0.283,-64.331,19.836,-11.230
0.330,1.076,-0.284,-44.434,14.709,-5.798
0.344,1.076,-0.292,-18.250,6.958,1.221
0.318,1.047,-0.286,7.690,0.000,8.057
0.308,1.035,-0.278,29.114,-3.113,13.489
0.301,1.011,-0.261,42.297,-1.404,16.479
0.278,0.960,-0.241,49.622,1.892,18.127
0.265,0.918,-0.219,52.490,6.287,20.447
0.264,0.894,-0.186,51.392,10.315,23.315
0.243,0.869,-0.152,44.922,13.855,24.963
0.220,0.895,-0.119,37.048,17.151,24.780
0.210,0.904,-0.091,30.029,19.836,22.156
0.208,0.892,-0.073,23.010,22.400,17.578
0.220,0.879,-0.063,15.808,23.254,12.634
0.235,0.891,-0.061,9.766,20.691,8.728
0.233,0.907,-0.050,6.104,14.771,5.615
0.227,0.923,-0.055,4.211,8.667,2.869
0.228,0.921,-0.073,2.136,4.944,0.366
0.236,0.916,-0.084,-1.160,2.686,-1.404
0.228,0.912,-0.088,-4.883,1.831,-1.953
0.217,0.914,-0.084,-8.240,2.319,-1.648
0.224,0.921,-0.093,-10.437,3.662,-0.793
0.228,0.906,-0.114,-11.658,4.700,-0.061
0.233,0.912,-0.128,-11.353,4.761,1.099
0.224,0.932,-0.129,-9.094,4.456,2.441
0.227,0.936,-0.129,-7.385,4.333,3.052
0.226,0.944,-0.136,-6.409,5.127,2.991
0.228,0.953,-0.145,-5.676,7.080,1.770
0.226,0.955,-0.141,-5.432,9.216,-0.732
0.219,0.949,-0.136,-5.127,11.475,-3.601
0.220,0.934,-0.129,-4.822,13.916,-5.737
0.211,0.926,-0.118,-5.371,16.602,-7.507
0.233,0.928,-0.105,-7.385,18.738,-8.667
0.256,0.918,-0.098,-11.353,19.104,-10.193
0.266,0.930,-0.093,-15.320,16.602,-11.292
0.275,0.926,-0.101,-18.555,12.817,-13.855
0.262,0.926,-0.096,-17.334,7.996,-15.625
0.246,0.941,-0.085,-15.869,5.005,-16.968
0.226,0.916,-0.087,-14.038,5.188,-17.090
0.216,0.924,-0.102,-12.451,8.179,-14.221
0.237,0.929,-0.116,-13.489,11.841,-10.376
0.268,0.943,-0.131,-13.977,13.977,-6.165
0.274,0.970,-0.139,-12.634,13.184,-2.930
0.272,0.981,-0.145,-8.301,10.498,-0.671
0.272,0.981,-0.152,-2.747,7.446,0.549
0.266,0.974,-0.152,2.502,5.432,1.465
0.257,0.975,-0.147,7.019,4.639,2.808
0.261,0.971,-0.146,10.315,4.456,3.967
0.252,0.953,-0.144,12.634,4.456,4.456
0.249,0.939,-0.141,12.817,5.005,4.395
0.246,0.933,-0.139,11.353,5.859,3.784
0.250,0.942,-0.128,9.399,6.592,3.479
0.253,0.954,-0.119,6.348,7.080,3.113
0.257,0.960,-0.124,3.296,7.629,2.991
0.253,0.948,-0.123,1.770,7.385,2.747
0.240,0.937,-0.127,1.038,7.080,2.563
0.244,0.923,-0.136,-0.427,6.836,2.441
0.245,0.925,-0.135,-2.258,5.737,2.014
0.239,0.935,-0.139,-2.991,4.089,1.282
0.239,0.942,-0.148,-2.258,2.869,0.854
0.233,0.949,-0.156,-0.549,2.258,0.305
0.235,0.949,-0.157,1.892,2.197,-0.427
0.230,0.943,-0.168,3.845,2.808,-1.709
0.248,0.928,-0.180,5.310,3.540,-3.174
0.260,0.922,-0.179,6.165,2.563,-3.906
0.249,0.929,-0.175,7.019,0.366,-4.211
0.239,0.921,-0.171,8.667,-1.648,-4.639
0.229,0.911,-0.172,10.376,-2.136,-4.883
0.234,0.927,-0.170,12.207,-1.526,-4.089
0.234,0.924,-0.168,13.977,-0.244,-3.113
0.237,0.927,-0.175,15.137,0.671,-1.953
0.238,0.909,-0.183,15.259,1.038,-1.038
0.245,0.903,-0.182,14.526,0.305,0.305
0.241,0.910,-0.168,13.123,-0.549,2.136
0.238,0.921,-0.161,12.024,-0.427,3.601
0.245,0.917,-0.162,11.169,-0.183,4.700
0.254,0.904,-0.169,10.193,0.244,5.371
0.254,0.901,-0.167,8.850,-0.122,5.981
0.248,0.902,-0.166,7.690,-0.610,6.165
0.233,0.896,-0.160,6.775,-1.221,5.554
0.226,0.891,-0.162,6.287,-1.343,4.822
0.214,0.894,-0.153,4.822,-0.488,4.089
0.215,0.900,-0.148,3.113,1.343,3.174
0.222,0.911,-0.149,1.892,3.784,2.441
0.226,0.919,-0.146,1.831,5.554,2.075
0.234,0.928,-0.145,2.686,6.104,2.014
0.242,0.934,-0.152,4.211,5.737,1.953
0.240,0.935,-0.149,5.554,4.211,2.136
0.234,0.940,-0.144,7.202,2.441,2.319
0.234,0.941,-0.143,8.545,1.465,2.380
0.231,0.940,-0.138,8.911,1.587,1.892
0.237,0.932,-0.142,8.789,2.136,1.526
0.241,0.926,-0.144,8.423,2.563,1.465
0.238,0.923,-0.143,7.568,2.747,1.282

1.650,-0.422,-0.688,-270.874,-407.104,84.595
1.815,-0.328,-0.793,-261.292,-416.382,99.792
1.988,-0.258,-0.911,-246.399,-429.810,108.582
2.104,-0.112,-0.993,-220.032,-443.726,112.122
2.115,0.105,-1.066,-184.387,-459.961,108.398
2.002,0.379,-1.101,-137.573,-478.577,94.543
1.875,0.997,-1.358,-77.026,-491.516,68.237
1.751,1.061,-1.947,-32.593,-498.535,27.405
1.907,1.234,-2.215,-11.292,-507.874,-12.024
1.016,1.060,-2.205,-30.823,-475.037,-44.006
-0.161,1.215,-2.092,-113.586,-350.403,-38.879
-0.471,1.584,-1.667,-140.320,-156.555,7.629
-0.306,1.631,-1.287,-156.555,38.452,42.419
-0.065,1.587,-0.964,-239.319,192.505,60.730
0.169,1.751,-0.843,-286.682,302.673,83.984
0.334,1.820,-0.325,-193.726,360.657,74.829
0.575,1.401,-0.729,-4.822,383.423,34.546
0.754,0.860,-1.343,132.935,307.434,20.020
0.827,0.874,-0.964,153.931,122.864,33.264
0.447,0.790,-0.569,163.208,-49.377,40.833
0.224,0.613,-0.291,177.490,-142.029,38.818
0.147,0.508,0.102,190.186,-161.499,23.499
0.042,0.460,0.011,214.355,-112.732,2.625
0.071,0.477,-0.203,209.045,-45.715,-13.672
0.166,0.479,-0.140,136.108,-18.738,-25.208
0.265,0.590,-0.220,81.543,1.343,-24.597
0.293,0.688,-0.235,24.780,11.841,-20.020
0.279,0.799,-0.245,-28.015,23.865,-17.944
0.265,0.890,-0.275,-61.707,35.767,-18.677
0.284,0.970,-0.289,-75.500,41.260,-17.395
0.277,1.035,-0.294,-74.158,39.001,-9.094
0.272,1.085,-0.244,-66.284,27.527,3.723
0.260,1.099,-0.223,-46.631,15.076,13.855
0.244,1.062,-0.251,-19.226,4.089,17.212
0.221,1.014,-0.284,6.042,-5.676,16.724
0.205,0.995,-0.263,22.705,-12.878,15.869
0.193,0.969,-0.246,33.936,-13.611,14.709
0.190,0.945,-0.243,42.114,-9.644,13.489
0.193,0.914,-0.216,44.617,-5.005,12.512
0.185,0.901,-0.192,41.931,1.160,12.390
0.182,0.891,-0.161,35.706,8.789,12.451
0.190,0.893,-0.151,28.320,15.442,12.390
0.199,0.907,-0.141,21.118,18.494,11.902
0.194,0.916,-0.132,14.343,18.311,10.437
0.194,0.940,-0.121,8.911,16.785,8.179
0.194,0.957,-0.106,5.615,15.747,5.920
0.190,0.962,-0.115,4.761,15.686,4.395
0.199,0.963,-0.117,4.578,13.367,4.333
0.204,0.954,-0.132,4.517,9.521,5.859
0.200,0.962,-0.124,3.479,5.005,8.118
0.200,0.961,-0.135,3.235,1.709,9.399
0.196,0.949,-0.143,3.723,-0.977,9.521
0.189,0.928,-0.153,3.113,-2.136,8.850
0.195,0.905,-0.173,1.099,-1.282,7.751
0.195,0.912,-0.177,-2.686,-0.305,6.653
0.190,0.924,-0.182,-6.531,0.732,5.127
0.187,0.936,-0.184,-8.728,1.953,3.296
0.181,0.944,-0.169,-10.071,3.296,1.404
0.188,0.946,-0.177,-9.338,5.127,0.061
0.196,0.953,-0.178,-8.484,5.859,-1.099
0.200,0.946,-0.175,-8.667,5.798,-2.319
0.208,0.957,-0.189,-8.240,6.104,-3.052
0.207,0.950,-0.186,-8.667,4.700,-3.906
0.195,0.934,-0.181,-9.399,2.563,-4.578
0.187,0.953,-0.183,-8.850,2.380,-5.127
0.194,0.957,-0.155,-13.550,4.272,-7.812
0.209,0.967,-0.177,-16.296,6.042,-10.925
0.217,0.956,-0.156,-19.165,8.606,-14.160
0.220,0.976,-0.180,-18.677,10.071,-15.503
0.219,0.955,-0.185,-19.287,9.644,-17.334
0.215,0.966,-0.182,-18.127,8.911,-17.700
0.214,0.948,-0.185,-18.494,9.216,-18.738
0.219,0.947,-0.191,-14.343,11.292,-17.212
0.205,0.909,-0.207,-11.780,13.123,-15.625
0.217,0.896,-0.209,-12.024,14.099,-13.489
0.224,0.904,-0.201,-11.353,15.503,-9.033
0.220,0.902,-0.207,-8.972,16.418,-4.333
0.224,0.905,-0.207,-7.263,16.235,0.000
0.240,0.895,-0.210,-6.104,15.076,4.028
0.235,0.894,-0.207,-5.554,12.451,7.935
0.220,0.903,-0.197,-3.296,8.911,11.169
0.204,0.902,-0.199,0.183,5.615,12.817
0.189,0.903,-0.193,4.456,2.441,13.000
0.176,0.902,-0.188,8.606,0.671,12.695
0.167,0.882,-0.191,11.230,-0.061,11.963
0.165,0.894,-0.192,11.230,0.366,11.902
0.164,0.904,-0.196,10.315,1.404,10.620
0.172,0.911,-0.197,9.583,1.892,8.301
0.180,0.922,-0.202,9.155,1.770,5.432
0.190,0.927,-0.202,9.094,1.465,2.014
0.189,0.927,-0.203,9.399,1.099,-1.160
0.200,0.916,-0.209,9.277,0.854,-2.747
0.202,0.910,-0.211,8.789,0.305,-2.441
0.198,0.914,-0.211,7.874,-0.244,-1.343
0.183,0.927,-0.204,7.202,-0.427,-0.366
0.184,0.926,-0.206,7.446,0.183,0.000
0.183,0.917,-0.213,7.874,0.793,-0.122
0.176,0.915,-0.210,8.423,0.610,-0.183
0.175,0.921,-0.215,8.972,0.671,-0.793
0.177,0.926,-0.218,9.888,0.916,-1.770
0.180,0.927,-0.225,11.292,0.793,-3.113
0.188,0.930,-0.230,13.428,-0.122,-4.700
0.192,0.932,-0.234,16.663,-0.793,-7.202
0.199,0.901,-0.231,20.081,-1.892,-10.986
0.202,0.903,-0.235,22.339,-2.197,-12.695
0.208,0.897,-0.231,24.780,-1.831,-13.794
0.213,0.878,-0.225,26.306,-1.465,-15.015
0.212,0.886,-0.225,26.733,0.366,-12.329
0.200,0.890,-0.211,25.513,1.953,-9.155
0.202,0.885,-0.204,23.865,3.967,-5.615
0.198,0.886,-0.200,21.912,5.676,-2.747
0.197,0.884,-0.194,19.470,7.202,-0.671
0.207,0.890,-0.192,16.724,7.751,0.671
0.216,0.901,-0.192,14.771,6.775,1.709
0.217,0.925,-0.179,13.367,4.883,1.526
0.213,0.936,-0.168,12.817,3.845,0.366
0.211,0.941,-0.165,13.428,3.723,-1.099
0.205,0.944,-0.160,13.794,3.662,-1.831
0.201,0.943,-0.156,13.611,3.723,-2.441

2.224,-0.107,-0.514,-182.312,-402.039,101.563
2.267,-0.094,-0.643,-163.208,-419.373,105.713
2.196,-0.052,-0.769,-150.940,-434.814,108.826
1.986,0.040,-0.945,-141.113,-447.876,109.741
1.767,0.205,-1.006,-133.667,-455.322,107.300
1.614,0.552,-1.333,-119.568,-448.853,97.839
1.528,0.557,-1.914,-120.789,-438.538,79.712
1.784,0.801,-2.233,-122.559,-439.880,57.495
1.129,0.965,-2.265,-135.559,-419.434,20.264
0.054,1.277,-2.052,-162.964,-326.294,3.296
-0.303,1.437,-1.651,-171.814,-166.260,15.320
-0.320,1.330,-1.212,-212.341,9.399,22.156
-0.194,1.344,-0.969,-268.372,159.790,32.654
0.041,1.720,-0.870,-223.938,261.902,45.166
0.374,1.659,-0.581,-113.770,311.340,21.973
0.592,1.071,-0.961,38.086,314.453,-15.442
0.819,0.830,-1.229,145.203,236.694,-14.282
0.844,0.889,-0.856,169.617,95.825,4.822
0.611,0.808,-0.563,181.702,-12.573,13.977
0.408,0.617,-0.367,182.861,-71.167,13.245
0.274,0.522,0.000,178.772,-89.417,10.559
0.184,0.496,-0.197,191.895,-59.814,11.719
0.194,0.452,-0.148,162.659,-28.137,15.015
0.203,0.546,-0.194,107.605,-11.230,23.376
0.239,0.642,-0.226,51.514,5.859,28.320
0.245,0.699,-0.268,-3.601,20.142,22.766
0.232,0.776,-0.302,-42.358,31.738,12.207
0.231,0.839,-0.312,-62.988,37.048,2.075
0.242,0.935,-0.329,-67.871,35.889,-3.845
0.250,0.988,-0.299,-64.392,28.931,-6.592
0.263,1.049,-0.272,-47.485,18.921,-8.179
0.269,1.054,-0.281,-24.780,10.742,-9.399
0.275,1.033,-0.309,-1.892,2.319,-8.850
0.274,1.015,-0.323,15.503,-6.104,-5.859
0.261,0.991,-0.315,26.489,-12.085,-2.197
0.245,0.938,-0.286,32.349,-14.343,2.563
0.223,0.904,-0.260,34.241,-11.841,8.118
0.213,0.906,-0.226,30.884,-4.395,12.756
0.224,0.905,-0.218,24.597,5.188,15.991
0.233,0.919,-0.219,17.029,12.817,17.456
0.229,0.937,-0.205,8.972,15.503,17.395
0.225,0.957,-0.186,3.845,15.442,14.648
0.215,0.941,-0.179,2.441,14.038,10.315
0.209,0.916,-0.169,2.869,11.780,6.775
0.220,0.895,-0.161,3.296,8.545,4.883
0.222,0.871,-0.171,2.930,4.578,3.662
0.195,0.880,-0.152,0.916,0.854,2.502
0.187,0.891,-0.153,0.488,-0.427,1.343
0.195,0.900,-0.172,1.953,0.549,0.488
0.203,0.908,-0.178,2.014,0.977,-0.427
0.214,0.914,-0.180,2.136,2.197,-1.526
0.219,0.923,-0.186,1.465,3.418,-2.380
0.236,0.926,-0.207,0.610,3.967,-3.052
0.240,0.933,-0.216,-1.160,2.808,-3.601
0.239,0.951,-0.213,-2.930,1.587,-4.150
0.245,0.957,-0.226,-3.784,1.587,-4.822
0.256,0.957,-0.243,-5.005,1.343,-5.676
0.251,0.951,-0.242,-7.751,0.366,-5.981
0.238,0.940,-0.231,-10.376,-1.160,-5.249
0.240,0.929,-0.237,-10.742,-1.953,-3.967
0.238,0.926,-0.242,-11.230,-0.732,-2.136
0.237,0.934,-0.239,-13.367,1.587,-0.610
0.235,0.927,-0.254,-15.137,4.883,-0.488
0.226,0.935,-0.225,-19.775,6.897,-2.258
0.227,0.939,-0.236,-19.592,9.338,-4.883
0.222,0.918,-0.245,-17.456,12.146,-7.874
0.228,0.924,-0.237,-16.174,13.184,-10.437
0.239,0.940,-0.277,-15.747,14.404,-14.160
0.238,0.883,-0.231,-17.090,15.137,-19.104
0.245,0.898,-0.246,-15.381,15.808,-20.569
0.250,0.882,-0.255,-17.029,17.456,-21.484
0.259,0.903,-0.272,-20.691,19.226,-21.301
0.264,0.870,-0.263,-25.024,20.447,-20.813
0.266,0.886,-0.260,-22.400,18.066,-16.541
0.255,0.895,-0.256,-14.832,13.794,-8.789
0.251,0.882,-0.260,-8.606,9.888,-2.014
0.239,0.877,-0.263,-2.136,6.592,3.906
0.237,0.884,-0.261,1.099,5.554,7.202
0.239,0.902,-0.264,2.869,6.165,9.155
0.235,0.927,-0.259,5.127,6.470,10.315
0.239,0.922,-0.255,7.568,5.798,10.071
0.240,0.904,-0.262,9.155,4.395,9.399
0.247,0.885,-0.266,9.033,2.930,9.705
0.250,0.881,-0.275,7.141,2.014,10.925
0.241,0.885,-0.276,4.517,1.221,11.902
0.233,0.912,-0.278,2.014,1.038,12.207
0.226,0.929,-0.282,0.305,0.793,10.742
0.227,0.936,-0.292,0.488,1.038,8.118
0.222,0.926,-0.300,1.831,1.282,5.066
0.215,0.930,-0.299,3.906,1.770,3.113
0.216,0.934,-0.293,6.165,2.686,2.075
0.222,0.931,-0.287,7.690,4.456,1.465
0.224,0.929,-0.289,9.094,6.470,1.221
0.236,0.912,-0.293,10.254,7.996,1.221
0.233,0.914,-0.293,11.353,7.874,1.526
0.233,0.919,-0.298,13.489,6.897,1.404
0.235,0.913,-0.306,16.174,5.920,0.610
0.233,0.907,-0.312,18.433,4.761,-0.671
0.228,0.896,-0.308,20.203,4.150,-2.075
0.225,0.895,-0.301,21.240,4.395,-3.479
0.228,0.904,-0.292,21.423,5.798,-4.333
0.225,0.881,-0.292,20.996,7.690,-5.737
0.223,0.877,-0.276,20.874,9.277,-5.859
0.220,0.874,-0.271,21.606,10.437,-4.395
0.216,0.879,-0.269,21.729,11.292,-2.319
0.211,0.895,-0.253,21.118,11.353,0.732
0.213,0.895,-0.255,20.813,11.230,3.296
0.213,0.902,-0.256,20.630,10.559,5.127
0.214,0.906,-0.253,20.142,8.972,6.287
0.224,0.908,-0.252,20.081,7.629,6.958
0.233,0.910,-0.248,20.569,6.897,7.751
0.237,0.920,-0.249,20.508,6.897,7.874
0.249,0.929,-0.248,21.118,7.812,7.690
0.249,0.921,-0.258,21.790,8.972,7.080
0.238,0.925,-0.253,22.339,9.399,7.202
0.217,0.931,-0.240,22.095,10.986,7.263
0.199,0.919,-0.241,22.278,14.160,6.836
0.196,0.911,-0.229,21.301,17.456,6.897
0.201,0.922,-0.229,19.531,20.691,7.263

1.931,0.455,-0.464,-38.574,-331.177,-12.817
1.817,0.542,-0.655,-42.053,-327.515,-29.297
1.671,0.675,-0.900,-47.607,-319.275,-42.419
1.556,0.699,-1.288,-57.739,-311.035,-53.406
1.617,0.695,-1.791,-73.730,-310.730,-61.401
1.573,1.007,-2.040,-76.599,-315.247,-71.899
0.809,1.163,-1.952,-81.726,-285.706,-88.440
0.090,1.296,-1.663,-115.356,-195.923,-88.623
-0.074,1.375,-1.288,-174.622,-59.143,-69.031
-0.036,1.358,-0.985,-222.168,81.116,-39.124
-0.029,1.556,-0.768,-210.754,176.697,-10.010
0.309,1.450,-0.417,-129.089,229.553,8.728
0.557,1.111,-0.735,20.691,245.239,27.893
0.837,1.045,-1.048,133.118,191.711,59.875
0.875,0.821,-0.904,161.621,69.519,77.698
0.658,0.653,-0.776,171.509,-43.518,75.867
0.420,0.590,-0.557,168.762,-120.483,64.392
0.211,0.523,-0.224,160.400,-146.790,45.776
0.066,0.500,-0.254,174.194,-116.089,29.175
0.101,0.442,-0.339,167.053,-61.523,17.822
0.168,0.494,-0.317,109.924,-31.860,14.832
0.241,0.616,-0.341,57.068,-6.653,12.268
0.265,0.706,-0.353,6.653,11.169,2.930
0.289,0.784,-0.363,-30.212,25.757,-7.324
0.307,0.872,-0.394,-50.903,35.522,-12.573
0.315,0.960,-0.386,-59.998,36.987,-12.146
0.326,1.008,-0.386,-56.091,31.860,-8.301
0.338,1.032,-0.390,-39.307,21.484,-2.502
0.332,1.042,-0.386,-17.639,8.118,5.127
0.310,1.035,-0.386,4.395,-2.136,11.597
0.291,1.016,-0.379,22.522,-8.240,15.564
0.273,0.982,-0.376,36.560,-10.437,17.639
0.244,0.930,-0.356,44.739,-9.949,18.738
0.218,0.873,-0.324,45.288,-5.859,19.043
0.170,0.861,-0.252,38.940,2.319,19.775
0.185,0.880,-0.225,32.776,14.587,20.386
0.221,0.899,-0.229,28.198,25.391,19.958
0.235,0.893,-0.212,20.752,28.870,18.250
0.224,0.911,-0.194,13.428,27.100,15.747
0.201,0.906,-0.150,9.033,23.682,12.451
0.199,0.892,-0.143,8.423,21.484,9.644
0.203,0.906,-0.138,9.155,18.921,8.667
0.203,0.933,-0.127,9.277,14.954,8.179
0.201,0.937,-0.129,10.925,11.292,7.019
0.195,0.916,-0.138,12.878,7.385,5.981
0.179,0.910,-0.139,12.939,4.089,5.615
0.175,0.906,-0.144,11.597,3.540,5.554
0.178,0.894,-0.151,9.460,5.249,5.615
0.192,0.912,-0.165,6.104,7.751,5.798
0.194,0.921,-0.167,1.831,9.766,5.066
0.209,0.919,-0.181,-1.099,10.193,4.089
0.222,0.926,-0.196,-2.625,9.338,3.174
0.226,0.940,-0.202,-3.296,6.958,2.319
0.220,0.933,-0.204,-2.869,4.517,0.977
0.202,0.918,-0.198,-2.563,2.747,-0.061
0.177,0.914,-0.188,-3.235,3.174,-0.549
0.171,0.918,-0.192,-3.845,6.531,-0.793
0.169,0.944,-0.186,-4.944,10.742,-0.732
0.185,0.944,-0.192,-5.066,13.550,-0.916
0.204,0.941,-0.203,-5.371,13.184,-1.343
0.209,0.956,-0.200,-5.493,11.230,-2.319
0.216,0.975,-0.187,-3.845,9.460,-3.906
0.212,0.965,-0.177,-2.502,8.484,-6.165
0.208,0.918,-0.191,-3.174,9.460,-8.545
0.217,0.911,-0.190,-4.517,10.071,-7.874
0.226,0.923,-0.185,-6.714,10.010,-6.714
0.212,0.971,-0.167,-9.155,10.132,-5.920
0.197,0.998,-0.153,-12.146,10.986,-7.507
0.197,0.957,-0.165,-14.343,11.230,-10.986
0.184,0.892,-0.166,-15.076,10.620,-12.634
0.191,0.865,-0.194,-13.184,10.498,-10.193
0.202,0.852,-0.199,-15.076,10.315,-6.897
0.215,0.894,-0.205,-15.259,9.460,-3.906
0.220,0.947,-0.202,-12.268,8.179,-1.709
0.218,0.969,-0.201,-7.568,6.775,-0.366
0.212,0.951,-0.211,-3.235,6.042,0.549
0.216,0.927,-0.228,0.427,5.188,2.075
0.218,0.905,-0.236,3.296,3.845,3.906
0.207,0.887,-0.239,5.188,2.075,5.676
0.194,0.874,-0.239,6.042,1.587,7.385
0.183,0.877,-0.242,6.226,3.235,8.301
0.185,0.897,-0.242,6.470,6.104,8.606
0.180,0.936,-0.230,8.179,8.301,7.507
0.187,0.932,-0.231,11.597,9.277,5.188
0.194,0.921,-0.228,15.686,8.484,4.089
0.193,0.915,-0.229,20.142,6.348,4.395
0.190,0.909,-0.225,23.437,3.540,5.127
0.185,0.920,-0.219,25.391,1.099,5.310
0.177,0.915,-0.221,27.039,-0.916,4.517
0.180,0.903,-0.229,28.564,-2.563,3.052
0.185,0.890,-0.234,30.640,-3.662,1.099
0.181,0.913,-0.223,33.813,-4.272,-0.305
0.158,0.928,-0.204,38.696,-3.601,-1.587
0.141,0.909,-0.195,41.992,-1.038,-3.052
0.154,0.893,-0.187,40.100,3.662,-4.333
0.166,0.883,-0.183,32.837,8.179,-5.432
0.189,0.890,-0.174,23.560,11.108,-6.714
0.212,0.917,-0.168,13.794,12.451,-8.667
0.231,0.901,-0.169,5.005,12.146,-11.536
0.247,0.897,-0.179,-0.183,9.705,-12.207
0.239,0.925,-0.185,-2.441,5.737,-9.583
0.226,0.941,-0.191,-1.770,2.258,-7.324
0.208,0.951,-0.200,-0.183,0.061,-5.188
0.190,0.948,-0.205,1.953,-0.610,-3.845
0.182,0.949,-0.206,3.967,0.427,-1.892
0.185,0.952,-0.206,6.226,2.075,-0.122
0.190,0.937,-0.208,8.667,3.174,1.648
0.191,0.935,-0.201,11.292,3.113,3.174
0.193,0.932,-0.187,12.939,2.380,4.028
0.200,0.929,-0.179,14.282,2.625,4.639
0.208,0.940,-0.164,14.038,3.601,4.517
0.210,0.940,-0.160,12.451,4.822,3.906
0.219,0.938,-0.161,11.047,5.432,3.479
0.222,0.945,-0.154,8.606,4.822,3.967
0.217,0.950,-0.152,5.188,3.540,4.883
0.207,0.960,-0.150,1.831,1.770,6.470
0.200,0.972,-0.145,-0.305,0.488,8.545
0.187,0.966,-0.156,-1.892,0.732,10.437
0.178,0.967,-0.148,-3.357,2.075,12.634

1.799,0.880,-0.505,-71.350,-307.007,88.379
1.764,1.001,-0.955,-30.334,-301.941,65.857
1.983,0.810,-1.731,-8.240,-307.373,37.170
2.073,0.909,-2.081,0.916,-328.369,3.662
0.922,0.789,-2.060,-10.010,-314.758,-40.344
-0.069,1.198,-1.862,-43.884,-217.712,-55.237
-0.150,1.596,-1.537,-114.929,-64.819,-59.082
0.001,1.526,-1.224,-192.688,90.393,-75.623
0.109,1.494,-0.988,-202.087,201.904,-80.200
0.285,1.484,-0.767,-148.682,262.024,-70.740
0.469,1.205,-0.623,-49.133,272.156,-38.757
0.723,1.051,-0.700,55.542,235.291,18.433
0.882,1.045,-0.632,125.610,172.058,55.725
0.825,1.050,-0.604,168.701,103.638,58.899
0.679,0.806,-0.548,191.833,23.621,36.621
0.525,0.523,-0.373,190.308,-52.307,18.677
0.326,0.512,0.133,192.139,-94.543,25.269
0.131,0.552,-0.153,231.384,-73.120,46.204
0.053,0.484,-0.068,197.693,-55.908,60.120
0.084,0.445,-0.088,137.085,-29.358,59.570
0.152,0.532,-0.169,70.679,-2.930,47.058
0.209,0.687,-0.228,8.362,20.508,23.804
0.259,0.796,-0.260,-42.725,37.781,-6.897
0.282,0.875,-0.265,-74.707,47.668,-33.569
0.299,0.967,-0.276,-84.229,50.415,-47.058
0.305,1.032,-0.260,-79.285,46.875,-47.974
0.309,1.083,-0.240,-64.880,39.124,-38.025
0.316,1.090,-0.242,-43.274,30.640,-23.376
0.335,1.079,-0.271,-16.785,21.729,-9.277
0.331,1.037,-0.289,6.104,9.521,2.014
0.305,0.995,-0.288,22.400,-1.709,10.742
0.281,0.977,-0.273,32.532,-7.324,17.273
0.254,0.943,-0.252,38.818,-6.897,21.851
0.241,0.922,-0.237,41.382,-2.563,25.330
0.227,0.914,-0.220,38.696,5.127,27.161
0.227,0.911,-0.212,32.532,13.672,27.222
0.214,0.900,-0.201,24.658,20.325,25.330
0.213,0.929,-0.185,16.541,24.597,22.766
0.218,0.940,-0.169,10.681,26.123,18.677
0.218,0.939,-0.170,6.897,24.536,13.977
0.216,0.939,-0.161,4.333,20.691,10.193
0.215,0.941,-0.156,2.258,16.724,7.629
0.223,0.932,-0.145,0.549,12.634,6.531
0.217,0.949,-0.135,-1.038,9.155,6.836
0.216,0.949,-0.138,-1.587,6.653,7.263
0.203,0.922,-0.149,-2.075,4.272,7.568
0.198,0.921,-0.155,-2.380,2.319,8.484
0.196,0.918,-0.173,-1.953,2.014,9.399
0.201,0.912,-0.184,-2.014,2.319,9.399
0.187,0.912,-0.192,-2.197,2.808,8.789
0.173,0.897,-0.201,-2.869,4.456,6.775
0.171,0.896,-0.212,-4.456,8.667,4.089
0.186,0.911,-0.215,-6.653,14.038,1.404
0.208,0.924,-0.221,-9.705,17.273,-1.221
0.223,0.937,-0.224,-11.841,17.883,-3.418
0.224,0.943,-0.232,-11.902,16.907,-5.005
0.223,0.940,-0.227,-9.949,16.113,-6.958
0.242,0.949,-0.240,-8.728,15.991,-8.972
0.245,0.926,-0.236,-13.184,16.541,-11.475
0.227,0.901,-0.236,-16.418,16.479,-11.719
0.186,0.904,-0.227,-19.409,16.174,-10.498
0.208,0.935,-0.222,-18.738,17.334,-8.362
0.183,0.919,-0.200,-21.606,21.667,-8.667
0.197,0.918,-0.221,-21.851,23.987,-9.460
0.223,0.928,-0.226,-18.555,24.963,-9.521
0.237,0.907,-0.237,-17.822,24.963,-10.193
0.231,0.823,-0.245,-17.334,22.400,-8.911
0.218,0.864,-0.237,-12.756,17.151,-3.723
0.197,0.938,-0.217,-8.972,15.381,1.404
0.203,0.946,-0.217,-7.019,15.442,4.272
0.202,0.934,-0.227,-6.287,15.137,5.859
0.200,0.919,-0.241,-5.249,13.428,6.165
0.198,0.898,-0.250,-3.296,10.498,5.493
0.207,0.881,-0.258,-1.587,7.629,4.150
0.202,0.849,-0.268,-0.793,5.798,2.686
0.193,0.855,-0.267,0.793,2.930,2.502
0.196,0.906,-0.256,3.662,1.648,3.784
0.197,0.919,-0.259,5.920,1.221,4.333
0.203,0.912,-0.278,7.874,0.244,4.028
0.201,0.896,-0.289,10.071,-1.282,2.930
0.196,0.869,-0.292,12.268,-3.357,1.526
0.188,0.851,-0.292,13.306,-4.822,-0.061
0.184,0.844,-0.291,12.817,-4.272,-1.587
0.180,0.871,-0.289,11.780,-2.563,-3.479
0.179,0.909,-0.282,11.902,-0.549,-5.859
0.183,0.917,-0.281,14.160,1.221,-10.010
0.195,0.902,-0.283,17.334,1.587,-13.672
0.199,0.884,-0.278,19.836,1.282,-15.930
0.206,0.884,-0.266,21.790,0.916,-15.869
0.219,0.890,-0.257,21.851,1.343,-14.709
0.228,0.906,-0.258,19.714,1.465,-13.245
0.234,0.908,-0.256,17.700,1.221,-12.512
0.238,0.906,-0.264,17.578,-0.061,-12.207
0.235,0.892,-0.257,17.761,-1.648,-11.841
0.226,0.911,-0.265,19.470,-2.136,-10.864
0.214,0.918,-0.261,20.752,-2.930,-10.010
0.207,0.906,-0.248,21.423,-3.967,-9.338
0.216,0.901,-0.249,23.071,-3.113,-7.629
0.218,0.903,-0.237,22.888,-2.258,-5.615
0.225,0.924,-0.236,21.179,-0.854,-3.540
0.237,0.925,-0.239,19.836,-0.122,-1.831
0.244,0.915,-0.233,17.761,-1.282,-0.488
0.244,0.905,-0.231,15.564,-2.869,1.221
0.239,0.896,-0.224,13.672,-3.906,3.235
0.245,0.927,-0.224,12.024,-3.174,5.310
0.253,0.963,-0.218,11.597,-1.282,6.348
0.254,0.980,-0.241,10.620,0.183,4.822
0.256,0.969,-0.263,10.498,2.014,2.502
0.267,0.958,-0.262,9.521,1.160,1.221
0.272,0.955,-0.255,8.911,0.366,2.075
0.262,0.961,-0.254,8.118,1.221,3.662
0.252,0.959,-0.250,6.775,3.723,5.005
0.251,0.946,-0.257,5.859,7.812,6.287
0.258,0.930,-0.268,5.127,12.146,7.874
0.248,0.947,-0.259,3.662,15.686,9.460
0.243,0.958,-0.248,3.418,19.043,9.949
0.245,0.946,-0.245,5.005,21.606,9.583
0.244,0.932,-0.247,7.202,22.705,9.766
0.242,0.922,-0.233,9.155,22.705,10.071

1.559,0.663,-0.607,12.024,-377.441,-22.156
1.571,0.664,-0.937,-8.179,-345.276,-52.734
1.755,0.600,-1.488,-41.565,-321.655,-75.195
1.822,0.854,-1.779,-77.881,-306.763,-96.069
1.060,1.018,-1.805,-115.540,-261.353,-124.329
0.312,1.230,-1.618,-157.349,-163.635,-137.085
0.128,1.490,-1.334,-191.650,-40.344,-129.517
0.288,1.598,-1.118,-179.871,65.430,-109.558
0.406,1.511,-0.993,-138.977,133.850,-89.600
0.458,1.330,-0.783,-65.430,157.410,-52.734
0.608,1.338,-0.749,30.273,145.386,6.165
0.817,1.157,-0.741,105.530,109.131,45.044
0.927,0.938,-0.762,150.330,57.678,59.570
0.855,0.681,-0.640,165.161,-10.315,60.791
0.636,0.538,-0.046,165.039,-75.806,62.805
0.379,0.597,-0.206,197.815,-90.149,72.021
0.248,0.576,-0.108,191.589,-76.233,80.200
0.221,0.533,-0.105,151.123,-60.913,83.374
0.266,0.542,-0.195,101.746,-41.138,76.172
0.329,0.629,-0.236,54.077,-24.475,58.411
0.342,0.709,-0.319,10.986,-9.583,32.715
0.337,0.788,-0.351,-23.682,1.221,4.028
0.328,0.858,-0.362,-43.701,10.498,-18.799
0.333,0.897,-0.363,-49.683,18.005,-30.518
0.362,0.956,-0.352,-47.485,24.109,-31.677
0.396,0.991,-0.358,-39.734,28.442,-24.841
0.427,1.019,-0.353,-27.710,29.602,-13.672
0.439,1.030,-0.336,-11.841,27.100,-1.465
0.436,1.010,-0.338,5.249,22.278,11.047
0.411,0.967,-0.313,20.203,17.090,22.583
0.383,0.935,-0.307,29.724,14.648,32.043
0.358,0.914,-0.284,34.912,13.367,39.307
0.336,0.889,-0.266,37.476,12.085,43.396
0.299,0.882,-0.244,37.720,12.512,44.373
0.270,0.872,-0.236,36.499,14.832,42.664
0.254,0.852,-0.227,33.691,18.250,39.124
0.238,0.859,-0.214,28.870,22.400,35.339
0.241,0.883,-0.201,23.071,26.001,30.701
0.244,0.897,-0.196,16.785,28.809,25.024
0.244,0.910,-0.183,11.230,30.212,19.409
0.249,0.905,-0.166,6.470,31.067,15.259
0.263,0.896,-0.174,2.747,31.555,13.916
0.270,0.906,-0.161,-0.244,29.419,14.465
0.265,0.912,-0.164,-1.831,25.574,15.503
0.248,0.892,-0.166,-2.747,21.057,16.357
0.222,0.869,-0.169,-2.869,16.663,16.907
0.198,0.875,-0.167,-2.808,15.076,16.785
0.194,0.877,-0.174,-2.930,15.686,15.198
0.201,0.865,-0.184,-3.296,16.724,12.207
0.198,0.886,-0.179,-3.113,16.296,8.911
0.193,0.895,-0.166,-1.282,15.808,5.188
0.187,0.881,-0.151,0.366,15.747,1.526
0.187,0.888,-0.155,-0.244,17.395,-0.549
0.201,0.890,-0.162,-1.831,19.836,-1.038
0.229,0.903,-0.161,-4.089,19.714,-0.244
0.236,0.919,-0.163,-6.592,17.334,1.221
0.232,0.934,-0.171,-7.751,14.099,2.014
0.214,0.929,-0.181,-6.958,11.536,2.014
0.208,0.896,-0.192,-5.432,10.010,1.038
0.194,0.855,-0.207,-4.761,10.925,0.000
0.200,0.858,-0.213,-6.470,14.709,-0.732
0.214,0.881,-0.219,-9.399,19.897,-2.380
0.219,0.918,-0.218,-11.475,22.644,-5.310
0.219,0.941,-0.206,-10.376,22.278,-9.216
0.212,0.947,-0.190,-7.751,20.691,-12.817
0.206,0.923,-0.192,-3.601,19.470,-14.282
0.201,0.894,-0.187,-0.793,18.921,-13.123
0.208,0.874,-0.183,2.869,18.494,-9.644
0.198,0.873,-0.178,4.700,19.287,-5.493
0.208,0.889,-0.191,5.432,21.851,-2.502
0.219,0.892,-0.198,5.798,22.400,-0.305
0.228,0.903,-0.199,7.080,21.179,0.916
0.224,0.914,-0.204,7.996,19.653,1.221
0.218,0.897,-0.206,8.362,18.616,0.183
0.217,0.886,-0.215,8.057,18.005,-1.038
0.214,0.900,-0.210,7.751,17.334,-2.075
0.209,0.916,-0.201,7.812,17.090,-3.296
0.209,0.918,-0.202,8.240,17.029,-3.967
0.219,0.892,-0.210,8.789,16.907,-4.089
0.221,0.880,-0.216,8.667,16.052,-3.052
0.216,0.901,-0.213,8.545,15.137,-0.916
0.213,0.923,-0.207,8.789,14.771,0.671
0.205,0.944,-0.200,10.254,14.709,0.916
0.205,0.935,-0.204,12.451,14.893,-0.183
0.211,0.918,-0.208,14.709,13.916,-1.465
0.216,0.896,-0.203,15.625,12.146,-1.831
0.217,0.895,-0.196,14.404,10.071,-0.977
0.219,0.901,-0.195,12.451,8.301,-0.244
0.226,0.914,-0.203,11.169,6.897,-0.427
0.238,0.936,-0.216,10.742,5.981,-2.075
0.244,0.940,-0.232,10.925,5.066,-4.822
0.238,0.938,-0.250,11.597,4.700,-7.690
0.237,0.945,-0.257,12.512,5.493,-9.216
0.259,0.954,-0.266,13.306,6.958,-9.155
0.280,0.983,-0.275,13.611,8.972,-8.362
0.278,0.996,-0.276,14.343,10.620,-7.568
0.296,0.989,-0.301,15.381,11.841,-5.981
0.302,0.959,-0.310,15.625,12.024,-4.578
0.283,0.970,-0.306,13.794,11.841,-1.404
0.276,0.970,-0.290,11.963,13.489,2.319
0.276,0.969,-0.286,10.559,16.785,5.188
0.292,0.966,-0.285,9.766,20.447,7.751
0.312,0.958,-0.295,9.216,22.888,9.644
0.312,0.940,-0.291,9.338,23.254,10.864
0.306,0.935,-0.286,10.498,23.315,11.780
0.313,0.926,-0.267,12.207,25.024,12.695
0.341,0.914,-0.284,12.939,28.809,13.000
0.371,0.902,-0.299,12.878,33.569,12.939
0.367,0.904,-0.250,9.705,37.781,12.634
0.369,0.914,-0.251,8.850,41.260,11.719
0.343,0.910,-0.234,11.047,42.603,10.681
0.337,0.912,-0.247,12.878,44.189,10.071
0.294,0.915,-0.238,15.137,43.152,10.742
0.244,0.943,-0.225,19.043,41.138,13.062
0.205,0.999,-0.205,28.015,40.039,16.541
0.197,1.026,-0.196,38.757,41.321,20.813
0.201,0.999,-0.180,46.692,42.908,24.902
0.220,0.975,-0.181,50.049,44.800,29.358
0.238,0.970,-0.181,50.232,46.631,33.142

1.518,0.681,-0.719,-5.005,-283.569,65.979
1.462,0.699,-1.012,0.000,-286.072,41.870
1.505,0.610,-1.497,-4.456,-293.762,15.747
1.629,0.819,-1.899,-11.719,-308.899,-10.193
1.033,0.981,-1.778,-23.010,-303.223,-46.875
0.187,1.107,-1.592,-48.401,-229.004,-79.346
-0.106,1.221,-1.262,-107.422,-101.868,-85.205
0.081,1.278,-1.086,-173.035,39.063,-73.914
0.129,1.265,-0.854,-209.656,151.978,-41.077
0.127,1.328,-0.632,-183.533,214.050,3.601
0.349,1.325,-0.556,-83.740,233.337,53.528
0.636,1.212,-0.682,33.813,208.740,90.637
0.818,1.011,-0.784,115.356,137.451,93.384
0.839,0.764,-0.805,162.781,38.452,69.824
0.637,0.534,-0.745,181.580,-65.430,39.734
0.378,0.448,-0.418,170.044,-136.963,26.794
0.145,0.540,-0.098,184.875,-144.043,31.738
0.059,0.551,-0.278,214.661,-92.712,36.255
0.022,0.538,-0.227,163.879,-57.312,32.715
0.099,0.601,-0.243,106.262,-18.311,22.644
0.196,0.687,-0.258,48.401,9.583,8.362
0.259,0.779,-0.293,-3.113,27.344,-5.432
0.300,0.874,-0.308,-39.551,35.828,-15.381
0.327,0.960,-0.323,-56.213,35.461,-19.226
0.344,1.027,-0.343,-54.749,28.198,-17.151
0.342,1.074,-0.354,-41.809,16.663,-10.620
0.317,1.073,-0.353,-23.437,3.296,-2.869
0.293,1.048,-0.339,-2.808,-6.226,4.395
0.278,1.002,-0.351,16.052,-8.179,9.521
0.262,0.945,-0.357,28.687,-6.165,13.123
0.240,0.901,-0.334,35.706,-2.930,16.663
0.211,0.850,-0.295,38.086,1.648,19.348
0.203,0.857,-0.268,36.377,8.667,21.301
0.211,0.876,-0.232,31.982,15.503,22.461
0.216,0.922,-0.203,28.076,20.020,21.240
0.224,0.950,-0.175,25.879,20.813,16.968
0.230,0.939,-0.174,24.414,19.409,10.254
0.245,0.927,-0.171,22.522,15.625,4.272
0.254,0.926,-0.168,20.142,9.521,2.441
0.239,0.934,-0.146,15.808,2.686,3.601
0.220,0.947,-0.144,11.108,-1.587,5.432
0.218,0.925,-0.169,7.507,-3.174,6.714
0.185,0.904,-0.179,2.991,-3.662,6.714
0.166,0.903,-0.188,-2.686,-0.916,4.822
0.189,0.906,-0.200,-7.019,4.089,2.441
0.202,0.911,-0.197,-10.010,8.057,0.610
0.197,0.930,-0.193,-11.292,10.254,-0.732
0.205,0.925,-0.196,-10.010,11.414,-2.380
0.209,0.915,-0.194,-8.362,11.841,-4.150
0.198,0.897,-0.192,-6.775,11.536,-5.676
0.204,0.893,-0.197,-4.883,12.024,-6.287
0.245,0.899,-0.205,-3.540,13.306,-6.165
0.264,0.906,-0.196,-5.554,13.000,-5.737
0.259,0.920,-0.189,-7.324,9.094,-5.310
0.249,0.931,-0.192,-5.920,3.296,-4.578
0.229,0.930,-0.198,-3.723,-1.587,-4.211
0.217,0.921,-0.210,-2.075,-3.723,-4.272
0.205,0.899,-0.221,-3.601,-3.418,-5.066
0.200,0.930,-0.228,-5.920,-0.427,-6.531
0.210,0.961,-0.233,-8.667,4.700,-9.033
0.222,0.960,-0.234,-11.963,10.132,-13.000
0.233,0.958,-0.238,-13.733,13.733,-15.564
0.248,0.947,-0.234,-14.648,16.052,-16.418
0.254,0.944,-0.242,-14.038,17.273,-14.954
0.264,0.925,-0.240,-13.794,17.395,-12.634
0.269,0.928,-0.233,-12.634,15.869,-9.399
0.263,0.937,-0.230,-10.620,13.855,-6.531
0.252,0.940,-0.220,-7.874,11.719,-4.211
0.253,0.916,-0.243,-3.235,9.888,-2.441
0.248,0.908,-0.254,1.770,8.484,0.122
0.255,0.923,-0.253,2.991,8.911,1.465
0.268,0.937,-0.251,2.930,8.972,1.953
0.264,0.959,-0.250,3.784,7.812,2.075
0.248,0.958,-0.252,6.042,6.531,2.258
0.237,0.938,-0.249,8.057,6.714,2.502
0.228,0.914,-0.248,8.545,7.874,3.296
0.224,0.913,-0.246,8.057,9.827,5.005
0.228,0.912,-0.246,7.507,11.963,6.592
0.232,0.921,-0.245,7.263,13.611,7.446
0.219,0.932,-0.241,7.874,14.648,7.202
0.217,0.927,-0.237,9.705,15.564,5.493
0.234,0.903,-0.250,10.742,17.212,2.991
0.243,0.891,-0.249,9.888,17.273,0.854
0.239,0.900,-0.240,8.118,16.235,-0.488
0.234,0.908,-0.229,6.836,15.259,-1.038
0.241,0.918,-0.226,6.226,15.259,-1.038
0.236,0.906,-0.227,5.859,14.954,-0.793
0.225,0.896,-0.229,5.737,13.916,0.122
0.218,0.902,-0.223,6.775,13.245,1.709
0.209,0.905,-0.222,8.484,12.573,3.052
0.204,0.902,-0.225,11.108,12.024,3.357
0.191,0.897,-0.218,13.245,11.658,2.747
0.185,0.878,-0.217,14.832,12.146,1.221
0.189,0.885,-0.209,15.869,12.451,0.671
0.186,0.879,-0.199,15.808,12.817,0.000
0.198,0.875,-0.198,15.320,13.611,-0.488
0.206,0.855,-0.199,14.343,13.062,-0.366
0.206,0.851,-0.194,13.306,11.658,1.038
0.211,0.848,-0.193,12.634,10.864,2.686
0.217,0.844,-0.202,11.047,11.169,4.150
0.218,0.831,-0.209,8.850,11.597,5.371
0.209,0.838,-0.207,6.165,12.695,6.165
0.206,0.845,-0.203,3.540,16.235,6.775
0.216,0.848,-0.202,0.916,20.935,7.019
0.210,0.858,-0.207,-1.648,24.658,7.507
0.189,0.884,-0.201,-1.648,25.269,8.240
0.164,0.911,-0.191,1.526,24.109,8.911
0.154,0.910,-0.186,6.531,22.400,9.155
0.163,0.901,-0.203,10.559,20.691,9.583
0.171,0.907,-0.212,11.963,17.639,10.010
0.183,0.927,-0.216,11.780,14.221,9.277
0.183,0.936,-0.234,10.803,11.475,7.202
0.173,0.939,-0.236,9.338,9.888,4.883
0.181,0.965,-0.234,8.423,10.437,4.028
0.184,0.986,-0.245,7.690,13.306,3.723
0.191,1.002,-0.252,5.066,15.747,3.845
0.195,1.016,-0.254,2.319,17.517,3.784
0.197,1.020,-0.250,0.854,18.250,3.662
0.209,1.016,-0.254,0.610,18.311,3.723

1.928,0.124,-0.473,-51.819,-357.361,63.477
1.757,0.092,-0.676,-33.997,-361.938,66.956
1.572,0.142,-0.869,-26.367,-355.042,68.726
1.411,0.170,-1.130,-27.893,-336.548,66.467
1.302,0.020,-1.523,-45.288,-317.749,58.838
1.354,0.035,-1.868,-62.744,-301.453,51.697
1.211,0.583,-2.022,-64.758,-275.391,41.382
0.558,0.960,-1.852,-77.820,-219.604,14.038
0.115,1.134,-1.581,-101.379,-121.826,-12.024
0.079,1.187,-1.305,-138.855,-5.005,-23.743
0.180,1.033,-1.165,-154.358,92.712,-25.330
0.336,1.276,-1.017,-130.127,157.166,-11.353
0.503,1.321,-0.902,-90.881,192.383,-12.207
0.736,1.234,-0.727,-39.368,200.317,-19.470
0.834,0.985,-0.821,30.701,180.237,-23.071
0.899,0.865,-0.935,100.830,121.704,-7.751
0.823,0.762,-0.731,135.010,25.635,16.846
0.613,0.717,-0.425,150.635,-56.580,40.588
0.380,0.704,-0.211,164.673,-88.074,56.580
0.262,0.659,-0.364,169.067,-72.876,63.354
0.193,0.648,-0.332,131.531,-54.810,63.171
0.198,0.641,-0.388,82.947,-27.832,55.603
0.230,0.654,-0.422,31.006,-0.854,40.039
0.274,0.736,-0.464,-15.259,23.376,21.240
0.326,0.813,-0.480,-48.157,40.955,2.502
0.355,0.885,-0.478,-63.904,49.255,-11.108
0.375,0.978,-0.485,-64.392,49.866,-16.174
0.383,1.062,-0.459,-53.894,41.992,-15.259
0.378,1.102,-0.431,-36.682,30.823,-11.536
0.362,1.082,-0.411,-15.076,21.057,-6.897
0.342,1.026,-0.387,3.845,13.550,-0.793
0.331,0.971,-0.367,17.456,10.620,7.385
0.322,0.924,-0.365,24.597,11.108,15.503
0.298,0.901,-0.334,26.794,11.292,22.705
0.279,0.900,-0.307,28.503,12.756,26.917
0.264,0.873,-0.295,27.893,16.174,27.527
0.246,0.866,-0.276,22.583,20.630,26.489
0.240,0.879,-0.263,15.503,24.841,24.597
0.236,0.880,-0.249,8.850,27.588,22.095
0.245,0.881,-0.230,3.906,28.870,18.799
0.240,0.882,-0.235,-1.160,29.480,15.442
0.237,0.904,-0.228,-5.066,28.564,12.085
0.240,0.907,-0.229,-6.104,24.414,9.277
0.233,0.928,-0.226,-3.357,18.066,7.568
0.219,0.933,-0.221,1.526,11.719,6.104
0.201,0.903,-0.223,6.409,7.568,4.639
0.171,0.888,-0.214,8.240,7.446,3.662
0.175,0.882,-0.227,8.667,11.108,4.089
0.212,0.863,-0.228,7.385,13.855,5.371
0.226,0.876,-0.229,5.066,13.000,7.324
0.230,0.899,-0.223,4.395,10.437,8.423
0.222,0.886,-0.221,6.409,7.812,8.240
0.210,0.857,-0.228,8.057,6.104,6.958
0.201,0.843,-0.236,6.714,6.592,4.578
0.193,0.843,-0.246,3.052,8.423,1.526
0.188,0.871,-0.244,0.244,10.437,-1.709
0.208,0.893,-0.253,-0.305,13.062,-4.272
0.251,0.893,-0.261,-0.854,15.076,-6.165
0.267,0.909,-0.250,-3.174,13.428,-7.385
0.265,0.937,-0.235,-3.967,9.827,-7.446
0.258,0.927,-0.230,-3.235,6.104,-8.179
0.233,0.897,-0.234,-1.404,3.601,-8.179
0.216,0.881,-0.235,-1.221,3.540,-7.141
0.222,0.877,-0.252,-2.625,6.104,-5.615
0.230,0.891,-0.245,-8.545,10.254,-6.165
0.238,0.864,-0.263,-11.108,13.062,-7.812
0.240,0.861,-0.266,-11.780,13.428,-8.911
0.232,0.848,-0.262,-10.132,12.268,-10.437
0.229,0.844,-0.269,-7.507,10.803,-10.559
0.227,0.801,-0.270,-6.836,9.705,-10.742
0.214,0.789,-0.274,-3.235,9.216,-8.301
0.214,0.840,-0.264,-1.343,9.827,-5.676
0.226,0.874,-0.259,1.343,11.108,-5.127
0.227,0.888,-0.255,4.578,11.047,-6.531
0.224,0.888,-0.259,9.949,9.705,-7.874
0.219,0.875,-0.253,15.869,8.118,-8.301
0.227,0.870,-0.238,19.226,6.897,-7.568
0.240,0.876,-0.235,20.996,6.042,-5.554
0.260,0.881,-0.237,19.775,5.005,-4.028
0.273,0.883,-0.252,18.066,3.357,-2.563
0.274,0.877,-0.259,17.090,-0.122,-1.099
0.271,0.886,-0.255,15.686,-2.991,0.366
0.256,0.898,-0.257,13.062,-4.028,1.160
0.242,0.910,-0.260,10.010,-3.967,1.160
0.237,0.934,-0.262,7.874,-3.235,0.732
0.239,0.934,-0.261,5.798,-1.587,-0.488
0.247,0.937,-0.270,4.089,0.488,-1.465
0.259,0.935,-0.273,2.991,2.014,-2.319
0.260,0.935,-0.272,3.296,2.014,-2.747
0.252,0.930,-0.277,5.249,0.671,-2.930
0.246,0.930,-0.281,8.240,-0.854,-2.380
0.242,0.934,-0.283,11.292,-1.892,-1.892
0.241,0.944,-0.284,13.855,-2.258,-2.197
0.247,0.955,-0.286,16.418,-2.075,-3.479
0.247,0.944,-0.281,19.348,-1.892,-5.371
0.242,0.912,-0.280,21.790,-2.441,-7.385
0.241,0.890,-0.278,21.973,-2.502,-7.812
0.247,0.908,-0.269,19.531,-0.977,-6.531
0.258,0.933,-0.263,15.625,1.404,-5.554
0.271,0.942,-0.263,12.329,3.296,-6.226
0.274,0.943,-0.269,11.902,4.028,-7.080
0.264,0.950,-0.272,13.367,3.601,-6.409
0.260,0.936,-0.271,15.320,3.662,-5.798
0.244,0.917,-0.275,16.357,3.540,-5.432
0.235,0.916,-0.275,15.747,3.845,-4.883
0.227,0.906,-0.268,14.526,5.249,-5.188
0.224,0.908,-0.270,13.916,8.484,-6.104
0.238,0.926,-0.264,14.221,12.329,-6.470
0.260,0.934,-0.254,14.587,16.418,-6.592
0.282,0.939,-0.247,14.526,18.860,-6.775
0.298,0.925,-0.246,14.526,19.165,-5.920
0.305,0.911,-0.242,13.855,16.602,-3.723
0.307,0.902,-0.239,12.817,12.634,-0.061
0.305,0.910,-0.225,10.620,7.751,4.578
0.290,0.927,-0.222,8.484,3.357,7.568
0.271,0.926,-0.220,6.775,0.183,8.850
0.250,0.926,-0.226,5.920,-0.916,8.545
0.245,0.924,-0.230,5.371,0.427,7.446
0.260,0.919,-0.240,4.089,3.662,5.920

1.745,0.114,-0.838,-72.083,-353.333,56.824
1.627,0.289,-0.994,-53.406,-355.774,40.710
1.478,0.479,-1.317,-31.616,-350.037,22.888
1.439,0.202,-1.806,-30.579,-348.083,0.549
1.618,0.332,-2.013,-32.288,-349.609,-15.320
0.966,0.734,-1.880,-30.029,-310.547,-32.776
0.100,1.137,-1.690,-55.359,-205.383,-40.710
-0.032,1.284,-1.338,-108.582,-66.528,-36.621
0.127,1.228,-1.048,-145.020,62.927,-27.649
0.243,1.209,-0.937,-149.292,162.476,-7.690
0.360,1.363,-0.841,-127.869,222.839,17.700
0.539,1.442,-0.612,-70.618,241.150,42.114
0.696,1.282,-0.722,14.343,233.276,52.124
0.827,1.048,-0.876,90.515,189.636,52.979
0.833,0.781,-0.876,132.935,101.746,47.058
0.714,0.574,-0.613,145.630,-2.625,38.025
0.480,0.586,-0.240,141.052,-79.346,31.799
0.246,0.714,-0.116,159.607,-95.642,27.039
0.196,0.634,-0.158,169.617,-69.885,20.569
0.186,0.548,-0.162,132.568,-51.636,21.973
0.243,0.604,-0.171,88.501,-27.649,30.579
0.296,0.676,-0.243,32.166,-2.075,29.724
0.329,0.754,-0.292,-19.897,19.104,17.639
0.356,0.855,-0.328,-56.030,32.288,3.052
0.356,0.938,-0.328,-72.571,35.767,-9.888
0.353,1.011,-0.320,-71.899,32.593,-19.043
0.346,1.053,-0.314,-58.960,27.161,-21.729
0.344,1.058,-0.307,-40.344,20.020,-18.250
0.341,1.056,-0.300,-19.348,12.756,-10.742
0.346,1.047,-0.292,1.343,7.141,-2.014
0.355,1.016,-0.284,18.005,2.808,6.226
0.344,0.995,-0.273,29.358,-0.244,13.733
0.332,0.973,-0.262,37.048,-1.648,19.470
0.317,0.940,-0.236,40.100,-1.099,23.254
0.296,0.930,-0.209,37.659,2.686,25.696
0.273,0.919,-0.187,31.738,8.240,26.672
0.266,0.907,-0.172,24.902,13.245,25.635
0.263,0.899,-0.157,17.334,16.846,23.254
0.256,0.909,-0.154,10.437,18.372,20.447
0.261,0.933,-0.147,5.859,16.968,16.968
0.254,0.940,-0.139,3.662,13.672,12.329
0.246,0.937,-0.139,3.174,9.705,7.507
0.239,0.938,-0.131,3.235,6.104,3.479
0.233,0.939,-0.118,4.150,3.845,1.343
0.235,0.917,-0.115,4.822,2.502,1.404
0.250,0.895,-0.131,3.784,1.587,3.052
0.255,0.882,-0.143,0.549,0.488,4.211
0.257,0.878,-0.156,-2.930,-0.244,4.517
0.277,0.896,-0.176,-5.615,-0.427,3.784
0.282,0.905,-0.191,-7.324,-0.671,2.380
0.282,0.910,-0.210,-8.057,-1.099,0.244
0.276,0.911,-0.214,-8.057,-1.709,-1.587
0.268,0.908,-0.220,-7.629,-1.770,-2.808
0.268,0.887,-0.224,-7.263,-1.892,-3.784
0.256,0.871,-0.224,-7.263,-2.197,-4.211
0.257,0.869,-0.225,-7.202,-1.831,-5.249
0.259,0.868,-0.231,-7.446,-0.977,-7.690
0.251,0.869,-0.226,-8.179,0.610,-10.681
0.250,0.894,-0.229,-6.836,2.808,-12.695
0.269,0.900,-0.225,-4.700,5.737,-13.855
0.286,0.889,-0.217,-6.592,8.850,-15.015
0.307,0.907,-0.243,-9.644,11.353,-15.686
0.302,0.866,-0.234,-13.733,12.756,-17.273
0.309,0.894,-0.225,-12.573,12.573,-15.808
0.300,0.897,-0.218,-10.742,11.047,-14.465
0.292,0.882,-0.225,-7.935,10.681,-12.573
0.287,0.875,-0.227,-6.653,11.292,-10.071
0.286,0.866,-0.229,-7.446,11.963,-8.423
0.293,0.860,-0.229,-5.920,11.841,-6.165
0.294,0.870,-0.227,-2.808,10.986,-3.967
0.296,0.882,-0.224,-0.977,10.315,-2.808
0.300,0.888,-0.224,1.587,9.033,-1.892
0.299,0.889,-0.219,3.540,8.240,-0.977
0.302,0.902,-0.220,5.615,7.324,0.671
0.306,0.896,-0.221,7.080,6.531,2.136
0.309,0.886,-0.224,7.385,5.615,3.845
0.305,0.888,-0.219,6.714,4.089,5.310
0.295,0.891,-0.216,5.310,2.869,6.165
0.294,0.888,-0.220,3.540,2.319,6.348
0.283,0.896,-0.217,1.892,1.770,6.165
0.269,0.909,-0.221,1.953,1.648,5.554
0.272,0.911,-0.226,3.235,1.465,4.456
0.268,0.918,-0.223,5.432,1.343,3.601
0.264,0.923,-0.225,7.812,1.343,2.563
0.266,0.918,-0.224,10.132,1.465,1.465
0.269,0.911,-0.222,11.902,1.221,0.427
0.273,0.904,-0.220,13.245,0.549,-0.854
0.276,0.902,-0.221,14.160,0.000,-2.258
0.280,0.904,-0.220,14.832,-0.244,-3.540
0.281,0.907,-0.219,16.113,-0.793,-4.456
0.284,0.910,-0.214,17.395,-1.404,-5.371
0.287,0.911,-0.207,18.494,-1.465,-5.737
0.288,0.902,-0.212,19.043,-1.282,-5.737
0.284,0.879,-0.210,19.287,-1.953,-5.310
0.273,0.870,-0.212,18.921,-2.502,-4.639
0.257,0.898,-0.204,18.127,-1.648,-4.211
0.267,0.891,-0.208,17.517,0.305,-4.883
0.291,0.889,-0.218,17.273,1.892,-6.042
0.298,0.902,-0.216,18.066,1.526,-6.042
0.297,0.903,-0.216,20.020,-0.061,-6.165
0.298,0.909,-0.214,22.400,-1.221,-5.615
0.304,0.929,-0.207,24.414,-2.197,-4.272
0.308,0.917,-0.208,26.184,-2.686,-3.296
0.317,0.917,-0.207,27.100,-3.906,-1.770
0.318,0.904,-0.213,27.100,-5.005,0.061
0.311,0.897,-0.213,25.879,-5.371,2.319
0.325,0.912,-0.226,24.109,-4.028,4.395
0.345,0.923,-0.243,20.752,-1.282,5.249
0.348,0.943,-0.251,18.066,1.343,5.493
0.350,0.958,-0.268,17.212,4.333,5.066
0.359,0.951,-0.285,17.151,7.690,4.639
0.354,0.951,-0.295,16.846,12.024,4.761
0.356,0.963,-0.304,15.564,17.639,5.371
0.383,0.970,-0.316,14.343,23.987,6.226
0.402,0.975,-0.327,13.367,29.297,7.019
0.404,0.989,-0.326,13.672,33.447,8.057
0.415,1.006,-0.335,15.991,37.109,9.460
0.422,1.000,-0.343,19.043,40.833,10.315
0.423,0.983,-0.345,22.583,44.678,11.597

1.729,0.463,-0.555,-51.697,-328.674,117.737
1.598,0.525,-0.757,-41.687,-327.820,101.440
1.481,0.538,-1.123,-41.565,-319.336,83.374
1.530,0.349,-1.678,-57.007,-312.256,62.134
1.530,0.494,-2.061,-84.900,-311.401,36.682
0.609,0.770,-1.825,-122.253,-281.067,0.366
-0.085,1.109,-1.693,-146.912,-169.739,-28.809
-0.043,1.228,-1.365,-200.012,-27.893,-49.927
0.125,1.208,-1.141,-230.286,87.830,-62.256
0.201,1.354,-1.013,-198.120,153.748,-48.096
0.339,1.434,-0.852,-129.822,181.274,-20.264
0.468,1.338,-0.791,-41.565,179.687,4.639
0.564,1.292,-0.756,38.147,154.541,21.179
0.681,1.221,-0.735,106.689,111.816,23.804
0.727,0.982,-0.717,158.447,48.218,17.761
0.646,0.663,-0.624,183.044,-21.667,17.212
0.464,0.501,-0.059,183.594,-75.684,30.212
0.299,0.602,-0.350,214.844,-79.041,48.462
0.218,0.614,-0.240,207.825,-67.444,56.702
0.137,0.576,-0.222,169.922,-53.040,57.739
0.146,0.592,-0.222,119.568,-31.067,52.490
0.195,0.670,-0.259,61.890,-9.277,39.490
0.210,0.737,-0.292,8.545,9.094,19.043
0.235,0.812,-0.309,-30.640,21.729,-2.136
0.259,0.897,-0.318,-50.659,26.794,-17.822
0.271,0.945,-0.313,-53.955,24.963,-27.832
0.279,0.986,-0.298,-45.593,18.799,-31.189
0.277,1.019,-0.288,-30.579,11.597,-28.870
0.270,1.032,-0.283,-11.536,5.493,-22.034
0.264,1.011,-0.280,6.531,1.221,-12.756
0.249,0.996,-0.275,20.325,0.549,-2.869
0.262,0.966,-0.279,29.053,2.014,5.920
0.273,0.938,-0.275,33.813,2.991,13.733
0.269,0.913,-0.266,35.461,3.235,19.958
0.260,0.900,-0.258,33.569,3.845,23.865
0.247,0.895,-0.254,28.992,5.310,25.024
0.225,0.900,-0.247,24.170,7.141,24.170
0.212,0.929,-0.235,21.301,8.850,21.179
0.203,0.933,-0.223,19.653,10.803,16.541
0.201,0.926,-0.218,17.273,12.939,11.963
0.197,0.919,-0.206,13.611,14.526,9.094
0.197,0.914,-0.205,10.010,15.259,7.690
0.199,0.921,-0.193,7.507,14.893,7.935
0.189,0.939,-0.178,6.409,14.099,8.118
0.177,0.922,-0.165,7.141,13.306,7.874
0.165,0.864,-0.168,8.606,12.695,7.751
0.159,0.846,-0.175,7.141,13.428,8.667
0.168,0.839,-0.180,3.235,13.977,9.399
0.182,0.859,-0.178,-0.671,13.672,9.277
0.191,0.918,-0.160,-2.319,12.512,8.057
0.194,0.939,-0.163,-2.197,11.230,4.578
0.185,0.910,-0.169,-1.587,9.338,0.366
0.184,0.894,-0.177,-1.587,7.202,-2.258
0.188,0.887,-0.187,-2.563,5.859,-3.601
0.200,0.888,-0.196,-5.432,5.798,-4.272
0.202,0.925,-0.195,-7.019,6.042,-4.883
0.191,0.969,-0.193,-6.897,7.019,-6.409
0.203,0.958,-0.207,-6.104,8.545,-9.338
0.208,0.937,-0.218,-3.418,9.216,-11.292
0.207,0.933,-0.218,-0.671,10.010,-11.292
0.219,0.925,-0.210,0.671,11.658,-10.437
0.221,0.912,-0.199,-0.916,13.977,-9.216
0.224,0.918,-0.182,-4.395,15.808,-7.507
0.217,0.921,-0.188,-5.554,16.479,-5.310
0.219,0.911,-0.185,-6.836,16.785,-4.211
0.223,0.889,-0.199,-6.348,16.235,-3.845
0.218,0.881,-0.191,-6.104,15.198,-3.052
0.205,0.921,-0.191,-3.479,14.465,-1.526
0.194,0.937,-0.184,-2.319,14.465,-2.075
0.196,0.935,-0.190,-1.648,15.442,-3.540
0.201,0.933,-0.185,-0.977,16.296,-4.211
0.209,0.927,-0.188,-0.427,16.663,-4.150
0.222,0.934,-0.193,0.854,16.052,-3.845
0.224,0.935,-0.196,2.075,14.526,-3.113
0.224,0.930,-0.204,3.479,12.329,-2.014
0.227,0.924,-0.218,3.357,10.315,-0.488
0.236,0.915,-0.235,3.357,8.606,0.854
0.235,0.911,-0.247,4.211,7.446,1.892
0.224,0.934,-0.249,5.981,7.568,2.014
0.217,0.942,-0.257,7.874,9.277,1.099
0.220,0.938,-0.264,9.827,11.597,-0.122
0.224,0.942,-0.264,11.841,14.282,-0.732
0.238,0.950,-0.269,13.672,16.968,-1.282
0.242,0.934,-0.277,14.465,19.104,-2.686
0.243,0.918,-0.279,13.855,20.996,-3.845
0.245,0.906,-0.283,12.329,23.193,-4.150
0.253,0.910,-0.283,9.644,25.452,-3.906
0.256,0.933,-0.279,8.362,27.039,-3.601
0.260,0.935,-0.281,9.277,28.503,-3.906
0.264,0.929,-0.276,11.536,29.541,-4.517
0.262,0.898,-0.269,13.672,30.457,-5.859
0.266,0.907,-0.266,16.541,30.823,-6.592
0.275,0.922,-0.254,19.287,30.457,-6.836
0.279,0.919,-0.245,21.912,29.663,-8.667
0.266,0.906,-0.239,25.818,28.076,-10.803
0.240,0.895,-0.223,31.067,26.367,-10.437
0.216,0.876,-0.202,36.987,25.024,-7.507
0.194,0.901,-0.195,42.114,25.940,-1.892
0.181,0.914,-0.186,45.654,27.649,4.578
0.186,0.916,-0.186,47.974,28.503,9.766
0.185,0.922,-0.180,49.927,27.344,13.977
0.191,0.930,-0.165,52.246,24.902,16.724
0.190,0.910,-0.178,53.528,23.437,18.005
0.189,0.910,-0.158,52.429,22.095,18.555
0.177,0.920,-0.138,49.011,21.423,18.738
0.162,0.934,-0.122,44.250,22.400,18.250
0.156,0.950,-0.103,38.269,24.292,17.151
0.149,0.949,-0.097,32.043,26.733,15.198
0.141,0.959,-0.088,26.184,28.442,13.123
0.139,0.966,-0.080,20.935,29.602,11.292
0.144,0.962,-0.086,16.296,30.151,9.216
0.146,0.967,-0.085,12.268,29.419,8.118
0.147,0.969,-0.098,9.216,28.748,7.324
0.162,0.980,-0.100,6.287,27.649,6.714
0.180,0.992,-0.110,4.150,26.062,5.493
0.190,1.001,-0.114,2.869,23.071,4.700
0.188,1.007,-0.118,2.930,20.264,3.784
0.188,1.013,-0.115,4.211,18.311,3.479
0.184,1.005,-0.122,5.432,18.555,2.991

1.135,0.565,-1.430,-17.944,-238.525,-12.634
0.816,0.770,-1.442,-32.166,-210.205,-27.832
0.301,0.804,-1.325,-61.951,-146.057,-47.302
0.073,0.909,-1.110,-100.525,-48.828,-51.514
0.113,0.914,-0.921,-123.169,47.363,-38.086
0.257,0.965,-0.822,-117.920,116.089,-12.939
0.474,1.052,-0.675,-78.857,146.973,18.555
0.699,1.052,-0.768,-1.648,145.508,45.410
0.797,0.955,-0.835,65.613,106.812,60.059
0.712,0.861,-0.766,96.924,41.321,61.035
0.511,0.668,-0.606,107.178,-18.188,53.101
0.286,0.466,-0.275,108.093,-47.119,51.453
0.170,0.439,-0.466,121.094,-34.302,60.852
0.133,0.486,-0.388,90.820,-21.667,68.970
0.152,0.562,-0.403,49.438,-4.333,66.223
0.201,0.639,-0.429,14.221,11.719,52.673
0.238,0.698,-0.462,-10.254,21.545,33.447
0.238,0.760,-0.472,-24.597,25.085,13.367
0.240,0.806,-0.463,-29.053,24.231,-3.662
0.263,0.860,-0.449,-25.696,21.729,-14.526
0.274,0.922,-0.438,-17.456,18.738,-18.799
0.298,0.948,-0.455,-7.812,15.869,-19.714
0.312,0.919,-0.453,0.000,13.367,-18.555
0.286,0.901,-0.423,4.639,11.475,-14.221
0.283,0.919,-0.402,9.521,11.230,-7.446
0.281,0.906,-0.385,13.794,11.169,-1.038
0.273,0.902,-0.377,16.235,10.803,5.676
0.278,0.902,-0.370,19.714,9.521,11.841
0.281,0.915,-0.362,25.024,7.019,17.090
0.252,0.905,-0.347,29.785,4.456,19.043
0.220,0.926,-0.327,32.349,4.211,17.944
0.196,0.935,-0.303,32.410,6.714,13.550
0.206,0.912,-0.290,29.907,10.010,5.676
0.221,0.901,-0.280,25.452,12.939,-0.732
0.240,0.904,-0.267,21.179,14.038,-3.906
0.252,0.900,-0.260,16.174,13.733,-5.493
0.256,0.911,-0.256,11.169,12.573,-6.653
0.248,0.913,-0.249,8.301,10.742,-6.897
0.248,0.924,-0.249,6.958,8.545,-5.249
0.247,0.940,-0.241,7.019,6.958,-3.418
0.245,0.932,-0.247,6.958,6.287,-1.526
0.236,0.931,-0.244,6.775,5.737,0.427
0.232,0.941,-0.244,6.775,5.981,2.075
0.232,0.932,-0.249,6.592,6.470,2.808
0.229,0.935,-0.252,6.287,6.226,3.113
0.229,0.913,-0.254,6.287,5.554,2.930
0.225,0.912,-0.254,6.042,4.883,1.709
0.218,0.911,-0.244,4.883,5.188,0.061
0.216,0.897,-0.242,2.502,6.592,-2.747
0.217,0.909,-0.235,-0.488,8.972,-4.761
0.228,0.919,-0.226,-2.991,10.681,-7.202
0.229,0.916,-0.226,-4.639,11.963,-9.155
0.241,0.902,-0.227,-5.859,12.329,-10.193
0.244,0.898,-0.225,-7.141,12.268,-9.766
0.246,0.903,-0.228,-7.751,12.024,-8.484
0.245,0.909,-0.230,-7.874,11.353,-7.812
0.235,0.910,-0.234,-7.263,10.864,-7.568
0.229,0.908,-0.236,-5.493,10.559,-7.385
0.234,0.902,-0.239,-5.066,11.719,-8.667
0.239,0.895,-0.233,-7.019,13.367,-10.803
0.253,0.884,-0.241,-7.629,14.221,-12.878
0.253,0.895,-0.240,-7.446,14.709,-13.428
0.251,0.868,-0.243,-7.202,14.648,-13.611
0.256,0.873,-0.249,-5.554,14.587,-10.498
0.257,0.908,-0.245,-2.258,13.977,-5.432
0.263,0.916,-0.253,0.366,13.489,-2.136
0.272,0.912,-0.260,2.625,12.085,0.488
0.262,0.913,-0.261,5.066,10.193,2.625
0.244,0.914,-0.255,7.629,8.423,4.211
0.242,0.907,-0.253,9.338,8.179,5.005
0.247,0.899,-0.260,9.521,8.728,5.005
0.238,0.899,-0.257,9.094,8.240,4.272
0.229,0.904,-0.256,9.827,7.263,3.052
0.232,0.903,-0.256,11.169,6.165,1.770
0.222,0.905,-0.254,12.268,5.798,0.183
0.217,0.899,-0.250,13.367,5.432,-1.282
0.221,0.901,-0.252,14.282,6.226,-2.686
0.219,0.914,-0.248,15.198,7.263,-3.723
0.222,0.921,-0.247,16.235,8.118,-4.639
0.219,0.926,-0.248,17.639,9.216,-6.042
0.227,0.932,-0.249,18.982,10.376,-7.996
0.244,0.925,-0.250,21.179,10.498,-10.010
0.268,0.908,-0.250,23.682,9.094,-10.803
0.270,0.905,-0.245,24.780,6.287,-9.277
0.281,0.909,-0.246,25.818,3.174,-5.798
0.292,0.921,-0.244,27.161,-0.061,-1.831
0.285,0.929,-0.244,28.809,-3.540,2.075
0.268,0.921,-0.244,31.677,-6.653,4.456
0.234,0.920,-0.239,33.386,-7.568,5.615
0.223,0.916,-0.233,33.508,-5.859,6.165
0.224,0.905,-0.231,32.043,-2.930,5.920
0.232,0.880,-0.239,29.846,-0.244,5.066
0.230,0.900,-0.228,27.649,1.160,5.798
0.232,0.905,-0.222,27.039,2.075,5.554
0.227,0.898,-0.211,26.611,2.258,4.822
0.227,0.895,-0.204,25.269,2.808,4.517
0.229,0.905,-0.192,22.644,4.089,4.761
0.243,0.905,-0.192,19.531,4.700,5.371
0.243,0.912,-0.186,16.724,3.784,6.165
0.243,0.916,-0.180,14.832,2.136,6.958
0.239,0.920,-0.182,12.634,0.916,7.080
0.229,0.927,-0.181,10.681,0.122,6.897
0.222,0.932,-0.181,9.277,0.000,6.104
0.213,0.937,-0.182,8.057,0.244,5.127
0.214,0.929,-0.185,7.263,1.282,4.089
0.219,0.915,-0.190,6.104,2.380,3.235
0.223,0.913,-0.190,5.005,2.991,2.991
0.229,0.923,-0.188,4.089,3.113,2.625
0.231,0.924,-0.183,4.089,3.052,1.892
0.231,0.929,-0.179,4.639,2.869,1.282
0.230,0.933,-0.177,5.371,3.174,0.549
0.231,0.940,-0.172,5.737,3.540,0.061
0.232,0.936,-0.167,5.981,4.028,0.000
0.234,0.935,-0.167,5.493,4.089,0.732
0.229,0.933,-0.168,4.333,3.662,1.770
0.223,0.938,-0.166,3.174,3.296,2.502
0.222,0.936,-0.167,2.563,3.357,2.625
0.222,0.937,-0.165,1.892,3.723,2.441
0.224,0.929,-0.166,1.099,4.272,2.441

1.009,0.693,-0.995,-71.777,-303.894,42.419
0.970,0.651,-1.158,-55.115,-290.710,10.193
0.949,0.634,-1.480,-44.006,-275.757,-15.198
0.987,0.755,-1.750,-37.170,-264.526,-35.522
0.760,0.936,-1.817,-46.143,-247.253,-59.937
0.301,0.922,-1.726,-69.519,-194.458,-84.778
0.004,1.007,-1.433,-104.492,-101.501,-89.172
0.030,1.138,-1.208,-135.132,4.211,-74.219
0.075,1.251,-1.011,-133.301,89.111,-51.208
0.144,1.299,-0.821,-91.064,139.404,-21.301
0.290,1.292,-0.799,-0.977,154.907,13.123
0.430,1.179,-0.794,85.327,135.559,40.588
0.514,1.059,-0.755,142.029,92.529,53.162
0.537,0.841,-0.753,181.274,40.039,52.124
0.425,0.614,-0.675,194.946,-13.916,46.021
0.244,0.554,-0.475,185.913,-52.185,42.847
0.118,0.538,-0.315,172.485,-58.105,40.161
0.048,0.513,-0.329,159.729,-37.659,36.316
0.043,0.520,-0.302,130.310,-15.808,31.921
0.082,0.576,-0.286,86.548,1.343,21.240
0.117,0.679,-0.317,40.283,17.517,5.371
0.146,0.789,-0.313,0.916,26.306,-10.315
0.178,0.892,-0.307,-24.597,27.832,-23.621
0.212,0.957,-0.325,-35.400,23.743,-29.968
0.216,1.002,-0.321,-34.607,14.099,-27.954
0.202,1.006,-0.328,-26.550,4.028,-21.240
0.184,0.989,-0.349,-15.137,-1.709,-12.939
0.160,0.975,-0.361,-5.005,-3.174,-5.310
0.142,0.958,-0.366,3.174,-1.465,0.183
0.136,0.948,-0.365,9.155,2.441,3.906
0.138,0.935,-0.349,12.817,6.165,5.310
0.143,0.919,-0.338,15.503,9.155,5.127
0.142,0.930,-0.307,17.090,10.864,4.700
0.145,0.947,-0.281,19.958,11.963,4.028
0.147,0.955,-0.265,24.475,11.902,3.113
0.151,0.932,-0.258,28.320,10.010,2.075
0.144,0.932,-0.250,29.114,7.141,1.831
0.140,0.933,-0.231,26.428,5.493,2.014
0.151,0.932,-0.237,23.560,5.066,1.953
0.137,0.926,-0.226,18.188,4.883,1.648
0.124,0.934,-0.202,11.353,5.798,1.160
0.134,0.925,-0.211,5.615,8.545,0.854
0.139,0.935,-0.212,0.916,9.460,1.526
0.139,0.957,-0.207,-2.075,7.568,2.441
0.131,0.955,-0.217,-1.526,4.639,2.380
0.122,0.952,-0.217,0.000,1.099,2.197
0.125,0.946,-0.220,1.770,-0.916,1.282
0.135,0.943,-0.232,3.113,-1.404,0.305
0.131,0.949,-0.227,4.089,-1.648,-1.038
0.134,0.930,-0.222,3.601,-1.587,-3.174
0.133,0.916,-0.211,1.404,0.183,-5.371
0.138,0.906,-0.222,-2.136,3.418,-7.385
0.152,0.910,-0.223,-6.042,5.920,-8.850
0.159,0.932,-0.217,-10.132,5.554,-9.521
0.158,0.943,-0.216,-12.085,3.906,-9.949
0.148,0.954,-0.220,-11.230,2.197,-10.010
0.149,0.960,-0.226,-8.728,1.038,-10.376
0.141,0.954,-0.231,-5.676,0.916,-11.658
0.138,0.932,-0.228,-4.456,2.075,-13.489
0.150,0.953,-0.240,-6.104,6.226,-14.343
0.181,0.944,-0.236,-9.705,11.108,-14.954
0.193,0.934,-0.233,-13.428,12.939,-13.733
0.189,0.942,-0.231,-13.794,11.780,-10.010
0.177,0.916,-0.227,-14.648,10.498,-7.690
0.176,0.896,-0.255,-14.221,9.827,-6.226
0.181,0.878,-0.261,-14.587,9.277,-5.188
0.184,0.893,-0.269,-16.846,7.751,-5.920
0.161,0.922,-0.247,-18.005,6.165,-6.775
0.156,0.928,-0.250,-13.611,4.883,-6.836
0.156,0.909,-0.256,-6.104,3.418,-4.944
0.151,0.902,-0.262,-0.793,2.075,-3.174
0.161,0.901,-0.264,3.113,1.831,-0.916
0.169,0.893,-0.269,4.211,2.625,1.221
0.173,0.907,-0.270,3.113,4.272,3.052
0.171,0.931,-0.268,2.014,6.287,3.479
0.162,0.921,-0.271,2.563,7.019,2.502
0.169,0.895,-0.286,4.150,7.324,1.648
0.181,0.875,-0.293,3.662,6.714,2.075
0.172,0.910,-0.281,1.587,5.249,3.113
0.156,0.956,-0.271,0.366,4.211,3.174
0.155,0.963,-0.276,0.854,4.333,2.014
0.156,0.959,-0.280,2.014,4.822,0.793
0.155,0.953,-0.284,3.235,5.249,0.061
0.171,0.929,-0.286,4.395,5.249,-0.061
0.172,0.906,-0.290,4.822,4.883,0.122
0.163,0.906,-0.282,4.517,5.127,0.854
0.158,0.912,-0.278,3.967,5.615,1.099
0.151,0.933,-0.276,4.272,6.287,1.099
0.155,0.937,-0.282,5.981,7.080,0.183
0.157,0.937,-0.281,8.484,7.263,-1.160
0.152,0.930,-0.278,11.169,6.775,-2.808
0.153,0.922,-0.275,13.916,5.859,-3.906
0.152,0.946,-0.271,16.541,5.432,-4.395
0.157,0.922,-0.269,18.005,6.348,-5.371
0.166,0.932,-0.267,20.203,8.301,-5.066
0.183,0.906,-0.281,20.569,9.399,-4.883
0.181,0.912,-0.276,19.836,8.179,-4.089
0.172,0.902,-0.266,17.761,5.981,-3.540
0.163,0.895,-0.267,14.832,5.310,-2.869
0.152,0.903,-0.251,11.230,5.066,-2.075
0.157,0.913,-0.250,9.216,5.798,-1.343
0.155,0.916,-0.256,9.277,5.737,-1.099
0.148,0.935,-0.246,9.888,4.822,-0.366
0.153,0.931,-0.242,11.536,4.395,-0.305
0.155,0.942,-0.244,14.038,4.333,-0.305
0.157,0.934,-0.242,14.648,3.784,-0.977
0.152,0.938,-0.232,14.404,3.479,-2.197
0.150,0.927,-0.237,14.526,3.967,-3.540
0.149,0.917,-0.240,13.550,4.395,-4.822
0.151,0.920,-0.238,12.390,4.944,-6.592
0.141,0.920,-0.229,10.925,6.165,-8.972
0.150,0.930,-0.225,9.888,9.216,-12.085
0.163,0.924,-0.219,7.874,12.573,-15.198
0.178,0.934,-0.212,6.104,14.893,-15.991
0.198,0.944,-0.212,5.005,16.296,-14.832
0.214,0.951,-0.202,3.967,14.709,-12.024
0.219,0.955,-0.198,3.113,11.353,-7.996
0.218,0.959,-0.195,2.258,6.714,-3.967
0.205,0.952,-0.200,2.136,2.319,-0.366

1.750,0.320,-0.720,-55.908,-329.895,109.802
1.655,0.417,-0.892,-51.941,-325.806,91.370
1.546,0.400,-1.357,-45.410,-319.702,65.369
1.627,0.261,-1.977,-45.959,-320.557,36.194
1.532,0.516,-2.181,-48.584,-329.590,3.235
0.534,0.694,-2.138,-61.584,-294.434,-41.626
-0.104,1.083,-1.813,-91.431,-185.242,-75.745
-0.045,1.246,-1.442,-150.757,-34.485,-96.741
0.037,1.231,-1.158,-175.293,88.684,-103.821
0.065,1.373,-0.964,-155.457,175.171,-93.506
0.318,1.210,-0.682,-79.102,217.285,-65.186
0.610,1.013,-0.819,35.461,214.478,-8.057
0.865,0.876,-0.871,115.601,165.649,47.180
0.906,0.781,-0.904,152.710,92.590,74.219
0.743,0.576,-0.834,169.678,0.427,78.674
0.485,0.446,-0.623,167.542,-86.121,77.576
0.208,0.453,-0.286,153.687,-127.686,79.224
0.003,0.458,-0.113,152.405,-108.337,73.242
0.035,0.413,-0.367,148.010,-53.040,59.021
0.095,0.410,-0.348,93.018,-17.578,42.236
0.148,0.499,-0.393,35.522,12.451,19.836
0.200,0.624,-0.434,-8.728,37.781,-6.104
0.225,0.725,-0.434,-40.588,51.331,-28.442
0.264,0.853,-0.432,-56.641,52.307,-40.161
0.290,0.943,-0.404,-59.509,45.349,-41.809
0.287,1.022,-0.367,-47.363,32.288,-37.842
0.301,1.062,-0.358,-25.757,18.799,-30.579
0.317,1.029,-0.378,-1.343,5.554,-21.729
0.307,0.984,-0.406,16.785,-5.554,-12.390
0.293,0.952,-0.415,26.001,-12.878,-4.700
0.266,0.920,-0.387,27.039,-15.137,0.732
0.244,0.891,-0.371,23.987,-10.132,5.066
0.228,0.894,-0.362,18.433,-0.366,8.789
0.225,0.917,-0.349,11.414,10.010,11.414
0.210,0.937,-0.326,5.432,18.677,12.268
0.200,0.944,-0.277,0.427,24.841,11.902
0.216,0.922,-0.287,-1.038,29.480,11.536
0.244,0.919,-0.301,-1.160,28.992,11.536
0.245,0.924,-0.281,-2.747,21.240,11.536
0.223,0.941,-0.260,-1.770,11.597,10.559
0.209,0.962,-0.241,2.869,3.601,7.690
0.194,0.949,-0.249,9.277,-0.610,3.967
0.172,0.927,-0.241,11.841,-0.793,0.732
0.179,0.923,-0.248,10.071,3.235,-1.282
0.221,0.898,-0.267,7.385,8.301,-1.404
0.240,0.901,-0.265,2.502,8.118,0.854
0.233,0.904,-0.256,-2.502,5.249,3.845
0.219,0.910,-0.264,-5.859,3.296,5.676
0.209,0.912,-0.283,-7.507,2.563,5.981
0.205,0.908,-0.307,-8.484,2.197,4.211
0.200,0.914,-0.323,-8.972,2.075,0.427
0.196,0.923,-0.329,-8.301,2.808,-3.845
0.197,0.928,-0.336,-7.446,4.089,-8.667
0.208,0.931,-0.333,-8.240,5.859,-14.282
0.214,0.900,-0.338,-9.644,7.324,-19.470
0.219,0.899,-0.325,-9.827,8.362,-21.851
0.229,0.902,-0.298,-10.498,9.460,-21.118
0.247,0.895,-0.288,-11.353,11.658,-19.348
0.260,0.885,-0.291,-10.925,11.597,-15.320
0.258,0.880,-0.301,-9.949,9.277,-9.583
0.251,0.892,-0.305,-9.277,5.859,-5.005
0.236,0.907,-0.311,-7.629,3.784,-3.479
0.227,0.905,-0.311,-7.141,3.723,-4.333
0.220,0.912,-0.321,-7.690,5.798,-6.836
0.228,0.905,-0.333,-8.850,8.789,-10.132
0.228,0.909,-0.332,-12.024,11.047,-13.367
0.229,0.904,-0.339,-12.573,12.573,-14.771
0.232,0.899,-0.326,-11.719,12.512,-14.648
0.239,0.883,-0.344,-8.789,11.902,-13.123
0.243,0.880,-0.352,-5.493,10.742,-9.766
0.245,0.882,-0.355,-1.953,9.949,-6.470
0.259,0.877,-0.369,0.183,9.766,-4.883
0.263,0.888,-0.370,1.892,9.460,-4.272
0.267,0.907,-0.379,4.822,9.338,-3.967
0.265,0.897,-0.380,7.935,9.155,-3.784
0.256,0.892,-0.374,10.498,9.033,-3.174
0.249,0.890,-0.366,11.841,9.827,-1.831
0.243,0.879,-0.361,11.658,11.230,0.000
0.242,0.881,-0.355,10.132,12.451,2.319
0.242,0.877,-0.345,8.667,12.512,4.089
0.239,0.872,-0.341,7.935,11.353,5.676
0.236,0.865,-0.339,8.972,9.399,6.775
0.226,0.857,-0.341,10.193,7.446,7.324
0.218,0.855,-0.344,10.498,6.531,6.653
0.221,0.849,-0.349,9.277,6.653,4.395
0.223,0.858,-0.346,8.179,6.775,1.648
0.221,0.878,-0.341,8.179,6.653,-1.099
0.224,0.888,-0.341,9.155,6.531,-3.662
0.234,0.889,-0.337,10.742,6.470,-5.310
0.236,0.873,-0.336,11.841,5.432,-6.348
0.232,0.853,-0.341,12.695,4.333,-6.226
0.232,0.867,-0.340,12.024,4.089,-4.944
0.237,0.875,-0.341,10.193,4.395,-4.089
0.240,0.878,-0.344,8.484,4.883,-3.662
0.232,0.892,-0.342,8.118,5.005,-3.296
0.236,0.877,-0.343,9.399,5.310,-3.967
0.236,0.870,-0.339,11.658,5.432,-4.028
0.238,0.855,-0.337,14.038,5.188,-3.906
0.241,0.841,-0.350,16.907,4.578,-2.563
0.234,0.847,-0.355,18.616,1.953,0.000
0.223,0.866,-0.333,18.066,-1.282,3.113
0.214,0.882,-0.328,19.287,-2.197,5.310
0.214,0.889,-0.327,20.508,-1.160,6.104
0.213,0.880,-0.322,19.836,0.732,5.554
0.219,0.874,-0.330,17.822,3.174,4.150
0.217,0.885,-0.318,15.259,5.188,2.319
0.231,0.902,-0.315,13.245,7.385,0.244
0.258,0.895,-0.342,12.207,9.521,-1.892
0.282,0.900,-0.353,10.864,8.240,-2.563
0.280,0.919,-0.347,9.521,4.333,-2.197
0.268,0.925,-0.345,9.644,1.587,-1.892
0.254,0.931,-0.343,10.010,1.770,-1.953
0.249,0.918,-0.347,9.888,4.272,-1.526
0.242,0.912,-0.349,9.949,7.507,-0.183
0.245,0.921,-0.338,10.376,10.986,1.953
0.259,0.920,-0.349,11.475,14.221,3.784
0.282,0.919,-0.365,13.062,16.357,5.066
0.295,0.911,-0.388,14.771,16.296,5.188
0.297,0.897,-0.396,16.235,16.296,4.333

1.953,0.304,-0.465,-120.483,-416.931,159.851
1.877,0.397,-0.530,-90.698,-419.739,156.860
1.708,0.409,-0.696,-62.683,-409.119,145.508
1.520,0.445,-0.897,-44.128,-383.057,129.395
1.472,0.543,-1.188,-35.461,-360.046,111.816
1.458,0.414,-1.746,-41.016,-339.233,91.003
1.615,0.218,-2.380,-57.129,-332.458,71.655
1.033,0.550,-2.416,-76.660,-327.576,52.429
0.010,1.121,-2.152,-105.408,-261.841,28.320
-0.289,1.438,-1.758,-158.325,-125.732,-3.540
-0.079,1.444,-1.360,-204.712,5.737,-46.265
0.113,1.626,-1.179,-172.119,97.473,-73.242
0.253,1.606,-0.925,-102.112,149.841,-96.863
0.485,1.214,-0.905,-9.888,166.992,-105.103
0.704,1.018,-0.945,80.261,147.949,-64.270
0.827,1.108,-0.921,149.292,90.881,4.272
0.744,0.890,-0.780,196.838,10.803,68.787
0.492,0.640,-0.605,220.398,-53.406,108.582
0.212,0.551,-0.416,215.820,-84.961,132.019
-0.003,0.533,-0.192,197.205,-76.416,135.315
-0.040,0.476,-0.309,187.744,-38.452,118.896
0.000,0.450,-0.337,152.405,-8.972,90.210
0.015,0.526,-0.318,97.290,7.446,55.237
0.034,0.653,-0.333,47.424,22.705,17.212
0.051,0.715,-0.279,1.770,33.325,-21.667
0.099,0.812,-0.259,-24.414,40.466,-49.744
0.155,0.897,-0.282,-34.546,41.931,-61.462
0.200,0.997,-0.281,-36.804,36.072,-59.631
0.222,1.043,-0.281,-30.273,28.198,-49.927
0.228,1.070,-0.293,-17.334,20.020,-37.537
0.218,1.082,-0.296,-3.784,12.207,-25.574
0.201,1.048,-0.304,6.714,7.202,-15.137
0.167,1.003,-0.306,13.855,5.249,-5.493
0.133,0.978,-0.303,19.653,4.822,2.991
0.119,0.960,-0.295,24.231,5.249,9.766
0.120,0.943,-0.290,25.818,6.531,13.611
0.119,0.938,-0.285,23.437,9.949,14.465
0.123,0.947,-0.258,17.151,13.062,12.939
0.112,0.964,-0.236,11.658,16.602,9.460
0.101,0.967,-0.205,5.127,19.958,4.395
0.105,0.937,-0.194,-1.465,23.926,-0.732
0.116,0.929,-0.192,-8.118,27.466,-3.113
0.125,0.945,-0.189,-14.709,28.198,-3.113
0.135,0.970,-0.180,-18.372,25.635,-2.380
0.138,0.977,-0.183,-17.700,21.057,-1.953
0.146,0.953,-0.219,-12.329,15.442,-1.770
0.138,0.965,-0.228,-7.507,8.301,-1.343
0.130,0.989,-0.220,-2.930,1.770,-1.038
0.138,0.988,-0.244,4.150,-2.380,-2.991
0.126,0.979,-0.251,8.484,-5.066,-5.005
0.125,0.956,-0.252,8.911,-5.432,-6.714
0.127,0.950,-0.262,7.324,-2.808,-7.080
0.146,0.942,-0.263,4.822,0.671,-5.676
0.156,0.934,-0.263,1.831,3.601,-3.723
0.162,0.942,-0.269,-1.709,6.470,-1.465
0.158,0.938,-0.272,-5.615,8.972,-0.244
0.155,0.937,-0.273,-8.057,11.230,-0.183
0.150,0.931,-0.274,-9.155,13.062,-0.854
0.141,0.946,-0.280,-9.521,14.221,-1.526
0.150,0.959,-0.290,-11.108,14.954,-2.991
0.140,0.946,-0.246,-18.494,13.611,-6.104
0.121,0.924,-0.213,-20.508,11.353,-8.362
0.129,0.912,-0.232,-12.451,9.644,-8.301
0.140,0.898,-0.237,-7.202,9.155,-7.935
0.146,0.894,-0.232,-5.981,8.301,-7.996
0.151,0.906,-0.249,-5.066,9.460,-8.789
0.151,0.922,-0.238,-8.911,11.353,-10.681
0.156,0.919,-0.243,-12.146,14.038,-12.939
0.152,0.924,-0.234,-14.771,17.151,-14.465
0.140,0.914,-0.228,-16.296,20.691,-13.977
0.150,0.887,-0.279,-19.287,23.254,-12.878
0.159,0.872,-0.241,-23.437,23.560,-10.254
0.154,0.878,-0.270,-19.592,22.461,-5.798
0.153,0.874,-0.269,-18.250,18.982,-2.808
0.155,0.882,-0.285,-12.390,15.076,-0.793
0.150,0.900,-0.282,-9.277,11.780,-0.366
0.138,0.919,-0.278,-5.859,9.399,-0.427
0.140,0.925,-0.280,-1.953,8.362,-1.099
0.144,0.917,-0.281,1.892,8.301,-1.770
0.137,0.906,-0.283,4.028,8.667,-2.808
0.135,0.891,-0.288,4.700,8.972,-3.662
0.142,0.895,-0.290,3.235,9.766,-3.784
0.141,0.921,-0.280,0.977,11.108,-2.930
0.148,0.928,-0.282,-0.671,12.512,-2.136
0.156,0.927,-0.288,-1.465,13.184,-1.282
0.155,0.932,-0.285,-1.160,12.634,0.061
0.146,0.920,-0.287,0.183,10.437,1.343
0.145,0.908,-0.291,1.892,7.751,2.075
0.126,0.896,-0.290,2.747,5.371,2.258
0.111,0.889,-0.293,2.930,3.723,1.465
0.119,0.877,-0.300,3.296,3.113,-0.244
0.120,0.877,-0.301,4.028,2.441,-2.502
0.126,0.887,-0.301,6.531,1.465,-4.395
0.138,0.892,-0.293,10.376,0.488,-6.653
0.137,0.898,-0.284,14.648,-0.549,-8.911
0.139,0.898,-0.281,18.860,-1.404,-10.498
0.141,0.890,-0.279,21.118,-1.221,-11.719
0.142,0.888,-0.275,20.691,-0.732,-11.780
0.161,0.899,-0.269,18.921,-0.183,-11.597
0.170,0.904,-0.270,16.846,0.427,-11.108
0.185,0.914,-0.277,15.442,0.061,-10.925
0.183,0.935,-0.280,15.259,-0.427,-10.071
0.181,0.945,-0.280,15.564,-1.160,-9.399
0.175,0.943,-0.286,17.151,-1.770,-8.667
0.170,0.928,-0.295,18.311,-2.319,-7.507
0.167,0.928,-0.296,17.883,-2.502,-5.615
0.163,0.938,-0.284,15.991,-2.197,-3.967
0.160,0.945,-0.280,15.625,-1.160,-2.808
0.165,0.946,-0.275,15.747,-0.427,-1.465
0.170,0.950,-0.282,17.273,-0.610,-0.427
0.159,0.951,-0.276,17.944,-1.648,0.366
0.151,0.968,-0.256,17.151,-2.502,0.977
0.160,0.969,-0.257,17.700,-0.977,0.671
0.173,0.965,-0.255,17.334,0.793,0.549
0.175,0.975,-0.256,15.564,1.953,0.549
0.174,0.971,-0.248,12.939,2.380,0.366
0.175,0.963,-0.251,10.742,3.052,0.183
0.178,0.957,-0.255,7.996,3.662,0.488
0.174,0.958,-0.254,5.127,3.845,1.343

1.467,0.379,-0.933,34.363,-333.801,29.358
1.473,0.231,-1.418,28.809,-328.186,12.512
1.664,0.215,-2.037,18.921,-334.106,-0.916
1.319,0.674,-1.996,6.958,-345.398,-24.048
0.190,1.023,-1.819,-15.259,-295.532,-65.491
-0.331,1.440,-1.284,-66.956,-162.964,-95.642
-0.211,1.584,-0.954,-131.531,-4.578,-110.107
-0.066,1.888,-0.746,-147.095,111.694,-110.352
0.213,1.570,-0.490,-114.014,187.500,-117.188
0.624,1.215,-0.856,2.014,214.478,-82.520
0.972,1.229,-1.137,100.647,164.124,-14.587
1.004,1.084,-0.989,132.751,55.969,32.471
0.767,0.869,-0.823,140.747,-38.452,50.781
0.453,0.676,-0.560,141.235,-104.736,55.054
0.221,0.543,-0.205,135.315,-126.770,58.105
0.069,0.603,-0.138,138.733,-95.581,60.974
0.099,0.676,-0.278,126.221,-43.030,55.603
0.127,0.689,-0.243,77.698,-10.742,41.809
0.180,0.692,-0.262,33.203,13.123,21.240
0.224,0.732,-0.258,-4.150,28.931,-0.977
0.245,0.807,-0.254,-31.677,36.072,-18.372
0.278,0.895,-0.239,-45.837,34.790,-28.015
0.310,0.982,-0.249,-45.776,27.283,-30.457
0.322,1.028,-0.259,-34.668,13.794,-28.381
0.323,1.021,-0.274,-17.090,-2.563,-22.949
0.292,0.974,-0.291,-0.366,-15.869,-16.296
0.249,0.942,-0.303,10.803,-22.400,-9.338
0.235,0.923,-0.294,16.663,-21.545,-2.991
0.226,0.923,-0.287,18.677,-14.954,2.258
0.249,0.917,-0.303,19.043,-6.958,5.920
0.255,0.918,-0.301,16.296,-1.465,7.385
0.227,0.925,-0.275,10.498,3.052,6.958
0.207,0.933,-0.249,6.287,9.216,5.066
0.213,0.932,-0.241,3.479,15.320,3.174
0.213,0.931,-0.226,2.625,18.860,2.014
0.216,0.956,-0.208,3.174,19.287,1.892
0.241,0.958,-0.207,6.409,18.066,1.404
0.243,0.934,-0.194,8.728,15.320,1.099
0.253,0.921,-0.194,9.338,12.756,2.136
0.256,0.899,-0.188,7.812,10.254,3.540
0.248,0.896,-0.194,4.028,9.094,3.967
0.237,0.899,-0.195,-0.671,8.240,3.113
0.229,0.900,-0.206,-3.357,6.592,1.038
0.225,0.906,-0.219,-3.113,3.540,-1.221
0.202,0.897,-0.218,-2.136,0.732,-3.052
0.211,0.904,-0.230,-0.977,1.282,-4.272
0.235,0.899,-0.238,-0.183,3.662,-5.432
0.247,0.909,-0.239,-0.671,5.737,-6.592
0.244,0.917,-0.232,-1.709,7.935,-7.996
0.227,0.922,-0.230,-1.892,9.644,-9.521
0.230,0.922,-0.229,-0.732,10.681,-10.620
0.241,0.915,-0.238,0.549,11.780,-11.169
0.248,0.913,-0.240,1.343,11.780,-11.719
0.247,0.919,-0.234,2.380,10.681,-11.780
0.241,0.918,-0.220,3.662,10.437,-11.902
0.234,0.899,-0.223,6.592,11.292,-12.451
0.221,0.888,-0.240,7.507,14.832,-13.245
0.238,0.889,-0.248,4.944,19.958,-15.198
0.261,0.896,-0.247,1.160,25.024,-18.311
0.274,0.908,-0.231,-2.075,27.893,-22.034
0.286,0.924,-0.221,-2.502,27.710,-25.085
0.293,0.925,-0.198,-4.883,26.611,-26.855
0.299,0.911,-0.190,-5.981,23.682,-26.367
0.303,0.897,-0.198,-5.920,19.653,-23.193
0.301,0.904,-0.199,-4.761,16.235,-16.907
0.300,0.911,-0.208,-5.127,15.198,-10.254
0.314,0.906,-0.223,-7.385,14.832,-5.127
0.308,0.907,-0.227,-9.094,12.878,-0.671
0.295,0.917,-0.237,-8.728,10.254,3.235
0.282,0.918,-0.246,-6.958,8.789,5.066
0.264,0.909,-0.253,-5.188,8.606,5.920
0.251,0.919,-0.248,-2.258,10.010,6.592
0.250,0.916,-0.242,0.610,12.207,6.836
0.256,0.915,-0.242,3.296,13.855,6.836
0.266,0.908,-0.240,5.798,13.367,6.714
0.273,0.898,-0.240,7.751,10.681,6.042
0.278,0.891,-0.239,9.521,6.409,4.944
0.268,0.890,-0.233,10.071,2.747,3.357
0.251,0.910,-0.226,9.460,1.282,1.282
0.252,0.923,-0.228,8.240,2.625,-1.526
0.256,0.915,-0.225,5.981,4.639,-4.089
0.231,0.917,-0.209,3.967,6.104,-5.005
0.241,0.912,-0.218,3.052,7.812,-4.700
0.265,0.913,-0.224,2.380,8.057,-4.150
0.274,0.921,-0.227,3.296,5.737,-3.906
0.273,0.926,-0.231,5.615,2.991,-4.089
0.266,0.925,-0.227,8.911,0.977,-4.700
0.263,0.921,-0.234,12.146,0.732,-5.371
0.264,0.917,-0.231,13.855,1.709,-6.042
0.273,0.904,-0.233,13.550,2.869,-6.653
0.280,0.905,-0.228,12.329,3.113,-6.714
0.274,0.915,-0.221,11.230,1.892,-6.653
0.276,0.891,-0.229,10.803,0.977,-7.263
0.281,0.898,-0.225,10.986,0.061,-6.897
0.289,0.899,-0.221,10.925,0.061,-6.836
0.293,0.899,-0.233,11.047,0.244,-6.714
0.288,0.899,-0.237,11.536,-0.427,-5.615
0.284,0.909,-0.236,12.817,-1.465,-3.906
0.282,0.922,-0.235,14.587,-1.831,-1.587
0.276,0.936,-0.227,16.357,-1.160,1.160
0.282,0.932,-0.220,17.517,0.244,2.686
0.285,0.912,-0.227,16.968,2.625,3.235
0.301,0.902,-0.224,15.259,4.150,3.845
0.284,0.925,-0.202,12.268,4.211,4.944
0.274,0.942,-0.194,10.193,4.639,5.920
0.275,0.936,-0.202,9.338,5.310,6.042
0.270,0.926,-0.206,8.850,5.371,6.226
0.274,0.923,-0.208,7.751,5.554,6.226
0.281,0.928,-0.215,6.470,5.981,5.615
0.279,0.935,-0.214,5.127,5.798,4.639
0.273,0.930,-0.212,5.005,5.615,3.784
0.269,0.927,-0.207,5.493,5.920,3.540
0.264,0.919,-0.209,5.798,7.141,3.540
0.257,0.913,-0.213,4.822,9.094,3.113
0.269,0.910,-0.204,3.479,11.597,2.441
0.281,0.918,-0.210,1.465,13.916,1.709
0.287,0.932,-0.199,-0.671,13.855,1.709
0.281,0.937,-0.193,-0.427,11.658,2.258
0.271,0.924,-0.195,0.793,9.094,3.296

2.052,0.190,-0.302,-94.849,-387.695,183.289
2.047,0.159,-0.391,-45.593,-405.823,179.810
2.027,0.164,-0.500,-5.310,-414.429,169.128
1.941,0.155,-0.727,26.001,-410.950,149.048
1.795,0.173,-0.985,41.565,-400.146,122.681
1.690,0.067,-1.484,38.086,-383.911,92.346
1.860,-0.168,-2.252,17.822,-379.578,65.491
1.761,0.096,-2.470,3.113,-394.287,35.400
0.406,0.678,-2.375,-6.287,-351.135,-11.169
-0.375,1.357,-1.909,-40.222,-205.933,-41.809
-0.176,1.595,-1.344,-130.432,-20.447,-67.688
-0.064,1.484,-1.106,-185.242,129.150,-86.121
0.052,1.788,-0.954,-173.035,234.009,-90.698
0.427,1.462,-0.584,-106.812,288.025,-107.422
0.856,1.039,-0.745,10.803,298.340,-99.792
1.101,0.916,-1.016,125.061,228.882,-39.124
1.226,0.781,-0.939,183.655,90.210,30.518
0.907,0.552,-0.807,191.284,-47.546,78.552
0.474,0.506,-0.410,165.100,-148.315,107.178
0.028,0.534,0.229,173.157,-172.546,119.019
-0.057,0.493,-0.232,231.445,-111.511,112.671
-0.032,0.395,-0.174,185.669,-76.538,102.661
0.021,0.380,-0.251,120.178,-37.842,84.534
0.090,0.459,-0.328,45.105,-3.845,59.692
0.171,0.592,-0.355,-18.738,21.729,28.931
0.206,0.744,-0.388,-55.359,39.001,-6.348
0.248,0.841,-0.403,-70.129,42.847,-37.659
0.267,0.955,-0.378,-71.777,34.668,-52.795
0.273,1.044,-0.339,-63.049,24.963,-53.955
0.289,1.098,-0.333,-44.434,18.311,-46.997
0.287,1.101,-0.326,-22.522,12.573,-35.583
0.283,1.044,-0.295,-2.808,6.287,-21.301
0.277,0.988,-0.313,13.428,4.578,-4.639
0.271,0.964,-0.319,23.987,2.686,10.925
0.258,0.938,-0.292,29.297,-0.061,22.400
0.235,0.894,-0.277,30.640,-1.221,28.442
0.221,0.880,-0.276,28.809,0.305,30.273
0.189,0.892,-0.229,22.644,2.136,29.236
0.165,0.893,-0.204,18.982,4.639,25.452
0.153,0.871,-0.191,18.005,7.324,19.714
0.145,0.863,-0.176,13.550,10.498,12.878
0.133,0.876,-0.153,5.798,15.259,5.493
0.139,0.897,-0.157,-1.770,21.362,-1.404
0.181,0.923,-0.155,-6.104,23.987,-5.371
0.212,0.931,-0.148,-7.996,21.606,-6.897
0.215,0.949,-0.144,-8.301,15.686,-6.165
0.228,0.959,-0.161,-6.836,9.583,-4.761
0.244,0.948,-0.186,-3.662,4.150,-4.089
0.233,0.926,-0.209,-0.549,-0.854,-3.601
0.210,0.913,-0.219,2.136,-4.211,-3.540
0.177,0.894,-0.232,4.089,-4.272,-3.357
0.185,0.876,-0.240,5.859,-2.197,-2.075
0.189,0.888,-0.242,5.554,0.061,-0.549
0.194,0.917,-0.247,4.578,1.953,-0.488
0.200,0.914,-0.241,4.761,3.296,-2.136
0.209,0.908,-0.246,5.188,4.944,-4.211
0.226,0.894,-0.245,4.700,6.775,-5.493
0.229,0.897,-0.245,2.930,8.057,-5.798
0.235,0.915,-0.241,1.038,9.277,-5.676
0.234,0.925,-0.239,0.244,9.827,-5.737
0.222,0.935,-0.227,-0.305,9.460,-6.348
0.212,0.924,-0.223,-0.854,9.338,-7.080
0.200,0.902,-0.214,-2.930,9.521,-7.996
0.195,0.891,-0.208,-4.639,9.766,-8.423
0.194,0.902,-0.202,-4.517,10.071,-7.935
0.199,0.900,-0.216,-2.747,10.620,-7.629
0.213,0.897,-0.205,-5.066,12.390,-9.644
0.230,0.902,-0.225,-5.432,13.916,-11.536
0.248,0.914,-0.219,-6.653,14.343,-13.916
0.244,0.922,-0.230,-6.226,13.794,-16.296
0.246,0.933,-0.242,-6.348,13.733,-17.822
0.244,0.916,-0.222,-10.254,15.503,-18.860
0.231,0.936,-0.212,-8.972,16.846,-14.771
0.233,0.928,-0.219,-7.996,16.846,-8.911
0.238,0.927,-0.220,-6.165,15.747,-2.808
0.233,0.931,-0.219,-3.967,13.916,2.380
0.234,0.921,-0.228,-2.930,12.268,4.761
0.236,0.913,-0.236,-2.441,9.766,5.066
0.224,0.911,-0.238,-1.648,6.836,4.395
0.218,0.911,-0.248,-0.427,5.066,2.747
0.221,0.919,-0.247,0.916,4.211,1.038
0.218,0.933,-0.247,2.197,4.517,0.000
0.227,0.938,-0.252,3.601,5.432,-0.671
0.235,0.936,-0.255,4.578,6.348,-0.977
0.237,0.926,-0.259,5.676,6.470,-0.854
0.236,0.922,-0.260,6.409,6.409,-0.732
0.235,0.919,-0.259,6.958,7.141,-0.793
0.228,0.918,-0.251,6.348,8.972,-1.038
0.225,0.921,-0.247,5.005,10.986,-1.099
0.225,0.913,-0.245,3.479,12.878,-0.610
0.224,0.908,-0.249,2.258,13.489,0.305
0.220,0.909,-0.253,2.319,12.695,1.160
0.209,0.915,-0.252,4.211,10.315,1.282
0.206,0.901,-0.252,7.690,7.385,0.732
0.208,0.879,-0.256,11.719,4.639,-0.366
0.203,0.871,-0.246,15.076,2.319,-1.526
0.209,0.870,-0.240,18.494,1.221,-2.930
0.209,0.872,-0.230,21.301,1.160,-4.272
0.208,0.882,-0.219,23.132,1.892,-6.348
0.227,0.875,-0.214,22.949,3.479,-9.094
0.235,0.882,-0.206,21.179,4.089,-11.536
0.251,0.865,-0.211,18.555,3.235,-12.939
0.264,0.884,-0.203,15.808,1.587,-11.719
0.271,0.911,-0.203,13.672,-0.793,-9.277
0.272,0.943,-0.207,12.817,-3.357,-6.348
0.263,0.964,-0.218,13.367,-5.798,-3.845
0.256,0.961,-0.223,13.367,-7.996,-2.197
0.244,0.954,-0.236,12.146,-8.728,-0.671
0.226,0.956,-0.240,10.132,-8.667,0.549
0.221,0.944,-0.239,8.057,-7.874,0.793
0.216,0.948,-0.246,5.981,-5.920,0.610
0.210,0.963,-0.239,4.333,-3.906,0.366
0.215,0.965,-0.246,3.723,-1.465,-0.732
0.225,0.966,-0.243,4.639,0.366,-0.977
0.231,0.960,-0.230,5.371,1.282,-0.488
0.238,0.950,-0.231,5.737,2.319,0.488
0.235,0.943,-0.226,4.639,2.991,1.770
0.231,0.945,-0.219,2.930,3.235,2.930
0.234,0.956,-0.203,1.587,3.479,4.089

2.313,0.138,-0.310,-139.526,-405.029,117.310
2.441,0.166,-0.461,-80.811,-410.278,107.727
2.559,0.187,-0.635,-20.874,-411.011,93.811
2.504,0.141,-0.920,24.231,-411.804,72.693
2.211,0.088,-1.290,54.382,-412.842,48.157
1.900,-0.023,-1.999,63.293,-411.438,27.283
2.002,0.211,-2.752,45.532,-413.269,9.644
1.173,0.402,-2.894,26.123,-388.000,-17.944
-0.299,0.976,-2.598,-7.141,-271.240,-31.006
-0.369,1.716,-1.957,-60.120,-82.092,-6.714
-0.059,1.761,-1.519,-173.035,96.802,0.000
0.074,1.445,-1.221,-230.469,212.280,4.883
0.397,1.348,-1.001,-182.129,255.554,24.414
0.704,1.277,-0.888,-78.064,228.333,29.358
0.946,1.081,-0.763,18.677,152.100,25.146
0.816,0.831,-0.692,95.764,61.035,18.372
0.503,0.585,-0.383,148.560,-24.658,20.081
0.262,0.613,-0.188,216.919,-75.623,30.457
0.078,0.656,-0.119,246.826,-81.726,39.490
-0.009,0.535,-0.129,231.018,-60.181,47.302
0.014,0.410,-0.129,197.266,-38.696,51.086
0.094,0.451,-0.133,153.870,-26.001,44.312
0.110,0.593,-0.144,96.436,-16.357,24.780
0.135,0.681,-0.143,31.982,-5.005,-1.831
0.177,0.774,-0.123,-24.231,6.775,-24.109
0.215,0.902,-0.110,-61.218,13.916,-34.851
0.237,1.013,-0.104,-75.562,12.695,-33.875
0.232,1.106,-0.114,-71.533,5.554,-26.489
0.222,1.118,-0.137,-56.885,-3.235,-18.799
0.206,1.081,-0.172,-39.917,-11.719,-11.169
0.212,1.061,-0.198,-23.926,-18.799,-4.700
0.185,1.056,-0.211,-10.864,-21.606,-1.526
0.166,1.012,-0.207,-1.343,-20.264,-1.099
0.161,0.965,-0.197,4.700,-15.503,-1.404
0.168,0.954,-0.185,5.310,-8.911,-1.648
0.178,0.966,-0.184,1.465,-2.014,-2.380
0.191,0.997,-0.178,-2.625,3.357,-3.845
0.209,0.998,-0.194,-5.981,7.080,-6.042
0.208,0.981,-0.193,-8.057,8.057,-7.996
0.182,0.982,-0.183,-9.094,8.362,-7.385
0.167,0.984,-0.190,-8.728,9.644,-3.906
0.177,0.993,-0.190,-7.507,9.949,0.427
0.176,1.026,-0.176,-7.935,8.301,3.723
0.183,1.046,-0.167,-8.301,6.775,5.310
0.195,1.035,-0.166,-8.545,5.310,5.249
0.202,1.005,-0.176,-9.460,4.211,3.845
0.213,0.975,-0.188,-11.658,3.723,1.892
0.228,0.958,-0.209,-14.160,3.296,0.366
0.228,0.939,-0.221,-16.357,2.319,0.305
0.224,0.918,-0.238,-15.930,0.916,1.160
0.209,0.910,-0.260,-14.709,0.427,2.380
0.197,0.920,-0.281,-13.611,1.465,2.502
0.202,0.934,-0.294,-11.169,3.784,1.831
0.205,0.946,-0.298,-7.324,5.371,0.671
0.198,0.958,-0.294,-2.258,5.371,-0.488
0.196,0.965,-0.294,3.235,5.676,-1.648
0.204,0.956,-0.297,7.324,6.775,-2.869
0.206,0.952,-0.292,9.705,8.484,-3.845
0.211,0.940,-0.288,11.475,9.644,-4.272
0.229,0.928,-0.271,12.573,9.460,-4.211
0.231,0.925,-0.256,11.475,7.874,-3.723
0.214,0.922,-0.238,9.338,6.042,-2.869
0.208,0.895,-0.233,6.470,5.432,-1.831
0.205,0.890,-0.225,3.296,6.165,-0.061
0.207,0.907,-0.221,0.854,7.568,1.648
0.208,0.931,-0.223,-0.671,9.644,3.052
0.207,0.949,-0.226,-0.610,11.597,3.540
0.207,0.944,-0.237,0.916,12.695,3.174
0.196,0.938,-0.235,3.662,12.390,2.380
0.193,0.944,-0.233,6.714,12.268,1.953
0.182,0.946,-0.218,9.399,12.634,0.488
0.182,0.934,-0.210,11.475,13.428,-1.953
0.194,0.913,-0.206,12.695,13.184,-4.089
0.208,0.896,-0.210,13.977,11.780,-5.310
0.205,0.874,-0.206,15.015,8.728,-6.775
0.192,0.876,-0.201,16.235,5.371,-7.324
0.183,0.881,-0.191,16.663,3.540,-6.958
0.176,0.886,-0.189,14.709,4.272,-5.981
0.177,0.895,-0.187,12.268,6.287,-4.150
0.183,0.911,-0.180,9.521,9.094,-1.038
0.196,0.918,-0.175,6.042,12.024,2.502
0.206,0.928,-0.176,2.502,13.123,4.578
0.206,0.923,-0.173,1.160,11.658,4.700
0.193,0.917,-0.172,1.709,9.033,3.235
0.187,0.905,-0.176,2.747,7.019,2.136
0.189,0.888,-0.181,3.357,5.554,0.732
0.186,0.893,-0.178,3.052,4.395,-0.488
0.190,0.891,-0.184,2.747,3.479,-2.441
0.186,0.897,-0.182,2.991,2.014,-4.456
0.171,0.893,-0.184,3.967,0.977,-6.409
0.156,0.898,-0.179,5.188,1.343,-7.996
0.160,0.900,-0.180,6.531,3.418,-8.484
0.169,0.898,-0.179,7.690,5.859,-8.301
0.170,0.914,-0.175,9.094,7.324,-7.874
0.169,0.921,-0.173,10.925,8.057,-8.484
0.173,0.909,-0.181,13.184,8.240,-10.193
0.176,0.896,-0.183,15.137,7.629,-12.451
0.175,0.870,-0.187,15.625,6.348,-14.954
0.169,0.864,-0.188,15.991,5.493,-17.212
0.181,0.867,-0.192,16.113,5.920,-19.287
0.196,0.877,-0.196,15.686,7.141,-21.973
0.204,0.897,-0.198,15.442,8.667,-24.658
0.213,0.902,-0.202,16.113,9.888,-27.893
0.214,0.893,-0.206,16.785,11.414,-30.518
0.229,0.905,-0.200,18.005,13.977,-30.823
0.254,0.903,-0.209,15.625,17.212,-30.701
0.278,0.911,-0.207,11.536,18.860,-29.297
0.292,0.925,-0.208,9.033,18.555,-26.184
0.308,0.945,-0.205,7.385,17.700,-21.362
0.315,0.950,-0.210,5.798,15.503,-16.113
0.314,0.962,-0.215,5.066,12.878,-9.949
0.299,0.976,-0.224,4.333,10.681,-4.456
0.283,0.982,-0.227,4.517,9.521,-0.366
0.275,0.978,-0.230,5.066,8.850,2.991
0.257,0.972,-0.231,6.165,8.301,4.700
0.249,0.971,-0.226,7.874,8.667,5.127
0.243,0.966,-0.217,9.644,9.460,4.700
0.243,0.961,-0.206,10.864,10.132,3.967
0.244,0.963,-0.196,12.451,10.803,3.784

1.988,0.354,-0.491,-93.506,-423.828,154.602
2.057,0.406,-0.623,-63.721,-417.175,137.695
2.039,0.395,-0.789,-36.072,-408.386,114.380
1.915,0.387,-0.929,-15.869,-397.400,88.928
1.715,0.391,-1.231,5.127,-377.747,65.796
1.485,0.346,-1.705,19.409,-355.286,46.936
1.453,0.253,-2.381,16.357,-342.285,32.837
1.291,0.561,-2.666,6.287,-327.332,17.822
0.208,0.928,-2.479,-24.048,-260.925,0.305
-0.305,1.408,-2.032,-74.463,-122.437,-0.366
-0.111,1.553,-1.512,-142.456,48.096,0.854
0.011,1.539,-1.144,-153.259,176.758,-0.977
0.082,1.958,-0.674,-91.797,249.268,-3.784
0.439,1.255,-0.758,36.072,285.706,-37.598
0.653,1.000,-1.026,137.146,268.982,-42.053
0.763,0.573,-0.988,174.438,178.223,-13.733
0.518,0.284,-0.734,174.438,56.641,38.696
0.209,0.246,-0.432,170.837,-24.719,87.158
0.004,0.318,-0.186,150.452,-52.734,105.347
-0.083,0.443,-0.079,130.310,-45.898,95.825
-0.082,0.511,-0.113,108.521,-22.888,63.599
-0.019,0.509,-0.193,70.557,0.061,21.667
0.061,0.585,-0.249,17.395,19.531,-13.672
0.137,0.734,-0.300,-26.733,35.156,-37.109
0.199,0.812,-0.329,-55.542,39.490,-48.828
0.244,0.924,-0.318,-68.909,32.227,-43.579
0.255,1.006,-0.320,-63.049,20.325,-24.353
0.221,1.021,-0.346,-47.607,7.385,-4.028
0.154,0.971,-0.354,-29.602,-4.822,9.033
0.109,0.918,-0.365,-9.399,-13.611,14.038
0.080,0.904,-0.366,7.141,-17.883,12.024
0.072,0.887,-0.346,17.944,-19.592,5.249
0.055,0.863,-0.319,23.193,-18.433,-2.502
0.058,0.869,-0.283,23.926,-14.648,-8.911
0.083,0.884,-0.247,22.766,-9.277,-13.428
0.118,0.893,-0.243,21.057,-4.272,-15.564
0.157,0.889,-0.257,17.456,-1.221,-15.991
0.166,0.898,-0.245,10.376,-0.916,-14.648
0.153,0.927,-0.225,2.930,-1.282,-11.719
0.153,0.941,-0.231,-0.671,-0.488,-8.728
0.145,0.956,-0.215,-4.395,-0.305,-5.981
0.133,0.960,-0.215,-7.263,-0.183,-3.967
0.138,0.975,-0.225,-7.202,0.061,-2.686
0.148,0.983,-0.241,-4.456,-1.648,-2.380
0.142,1.001,-0.243,-1.282,-5.127,-2.991
0.133,1.016,-0.230,2.075,-8.911,-3.845
0.148,0.979,-0.267,6.226,-10.986,-5.920
0.160,0.951,-0.300,7.263,-12.085,-7.812
0.164,0.962,-0.293,2.808,-12.329,-8.850
0.169,0.968,-0.299,0.244,-10.132,-9.705
0.166,0.965,-0.303,-0.732,-7.019,-10.071
0.160,0.968,-0.307,-1.892,-3.296,-9.033
0.158,0.969,-0.309,-1.770,1.465,-7.568
0.155,0.972,-0.299,-0.427,5.859,-6.470
0.158,0.985,-0.287,2.563,8.301,-5.859
0.174,0.987,-0.295,7.080,8.179,-6.104
0.179,0.986,-0.288,8.667,6.226,-7.080
0.190,0.979,-0.279,7.568,4.333,-7.751
0.207,0.973,-0.276,6.409,3.296,-7.141
0.219,0.969,-0.269,4.578,1.892,-5.066
0.210,0.982,-0.266,1.526,0.244,-3.052
0.197,0.980,-0.260,-0.916,-1.099,-1.465
0.171,0.911,-0.289,-2.380,-1.404,-1.038
0.154,0.914,-0.283,-6.958,0.183,-0.244
0.155,0.955,-0.282,-11.536,6.531,-0.366
0.165,0.959,-0.284,-15.442,14.648,-3.113
0.176,0.965,-0.302,-15.564,18.799,-5.066
0.180,0.969,-0.297,-15.991,18.555,-6.531
0.177,0.940,-0.318,-13.062,17.639,-7.385
0.165,0.918,-0.251,-15.930,17.029,-8.545
0.172,0.916,-0.259,-15.930,20.630,-9.094
0.187,0.880,-0.271,-19.531,23.926,-9.888
0.193,0.907,-0.245,-24.475,22.766,-7.324
0.187,0.912,-0.267,-24.658,20.020,-3.967
0.192,0.912,-0.253,-24.658,16.541,0.122
0.188,0.906,-0.287,-19.897,13.611,4.578
0.178,0.909,-0.320,-14.832,11.230,7.751
0.160,0.900,-0.315,-14.648,10.559,8.240
0.137,0.909,-0.296,-10.620,11.963,8.240
0.119,0.915,-0.283,-4.883,16.479,8.301
0.111,0.893,-0.283,-0.549,21.484,8.057
0.123,0.865,-0.301,1.831,24.353,7.019
0.144,0.869,-0.299,3.906,23.499,4.944
0.148,0.892,-0.288,6.409,19.592,1.831
0.145,0.893,-0.285,9.460,14.771,-2.197
0.142,0.878,-0.290,12.634,11.353,-5.676
0.146,0.885,-0.291,14.526,10.193,-7.996
0.160,0.885,-0.289,13.367,12.024,-9.155
0.168,0.901,-0.291,10.803,13.794,-8.484
0.177,0.907,-0.294,9.460,14.343,-6.775
0.171,0.909,-0.292,9.338,14.343,-4.883
0.165,0.899,-0.299,9.277,14.404,-3.601
0.153,0.901,-0.300,9.583,14.343,-2.625
0.148,0.898,-0.302,10.559,14.465,-2.686
0.133,0.888,-0.291,11.902,15.076,-3.662
0.129,0.889,-0.273,13.367,15.808,-4.578
0.135,0.878,-0.271,15.381,16.663,-6.348
0.141,0.882,-0.266,17.944,16.479,-8.667
0.138,0.894,-0.256,20.264,15.381,-11.292
0.143,0.877,-0.253,22.034,13.977,-14.465
0.154,0.860,-0.251,23.315,13.000,-16.907
0.160,0.867,-0.240,22.827,12.268,-17.578
0.179,0.895,-0.226,23.254,12.146,-16.052
0.189,0.907,-0.226,25.269,12.817,-12.939
0.189,0.930,-0.221,25.391,12.512,-7.507
0.207,0.937,-0.228,24.475,13.000,0.000
0.209,0.921,-0.239,21.301,13.672,8.850
0.192,0.922,-0.234,14.343,13.123,17.334
0.172,0.931,-0.238,8.240,13.367,23.315
0.155,0.936,-0.246,4.150,14.099,25.574
0.151,0.935,-0.249,0.916,13.611,24.963
0.140,0.931,-0.257,-0.183,12.390,21.912
0.126,0.917,-0.254,-1.038,9.827,17.456
0.131,0.924,-0.241,-1.099,6.714,12.573
0.128,0.937,-0.237,-0.488,4.761,6.958
0.126,0.943,-0.227,0.183,3.540,1.587
0.128,0.946,-0.225,2.197,3.113,-2.136
0.134,0.958,-0.222,3.662,3.235,-3.601
0.148,0.956,-0.229,4.639,3.479,-4.028

2.412,0.146,-0.515,-114.990,-410.767,88.013
2.594,0.210,-0.705,-84.106,-416.626,62.561
2.551,0.357,-0.912,-40.955,-426.147,32.349
2.243,0.451,-1.107,9.216,-432.129,-1.038
1.886,0.475,-1.382,48.828,-421.875,-24.536
1.545,0.261,-1.994,52.490,-401.184,-31.616
1.564,0.196,-2.499,24.109,-387.390,-23.804
0.725,0.548,-2.429,4.089,-348.999,-16.785
-0.353,1.167,-2.069,-26.306,-231.384,3.723
-0.404,1.522,-1.458,-74.951,-61.035,37.781
-0.282,1.465,-0.974,-170.898,110.291,58.655
-0.127,1.382,-0.831,-205.811,223.877,77.942
0.241,1.424,-0.591,-148.926,268.127,90.820
0.598,1.200,-0.558,-39.368,255.737,74.951
0.824,1.037,-0.805,57.739,187.500,45.837
0.785,0.886,-0.716,83.923,66.162,15.015
0.470,0.689,-0.325,79.712,-66.589,-5.188
0.184,0.546,0.124,117.249,-139.954,-5.005
0.040,0.496,-0.152,196.594,-127.563,1.038
0.003,0.441,-0.165,179.199,-110.657,4.089
0.048,0.498,-0.211,134.399,-82.520,3.967
0.154,0.615,-0.299,77.454,-52.307,-2.197
0.220,0.701,-0.377,16.541,-27.100,-13.733
0.215,0.784,-0.407,-39.001,-7.324,-26.733
0.196,0.907,-0.409,-82.214,10.315,-37.537
0.218,1.054,-0.386,-102.722,24.353,-47.302
0.257,1.143,-0.372,-98.694,30.212,-57.922
0.303,1.147,-0.406,-77.942,27.344,-66.650
0.341,1.006,-0.452,-49.561,13.672,-63.293
0.340,0.974,-0.466,-25.452,-6.836,-38.330
0.307,1.071,-0.422,-5.432,-23.376,-8.789
0.250,1.046,-0.399,11.230,-26.611,1.953
0.243,1.001,-0.375,23.071,-22.095,4.822
0.243,0.973,-0.346,31.189,-15.503,7.141
0.223,0.909,-0.299,32.593,-8.728,10.315
0.225,0.871,-0.273,29.602,-1.038,14.526
0.236,0.861,-0.261,23.071,6.226,17.151
0.227,0.892,-0.245,12.634,10.986,16.235
0.222,0.906,-0.240,4.272,12.817,10.803
0.227,0.927,-0.235,-1.099,12.329,3.723
0.234,0.963,-0.227,-3.601,10.864,-2.197
0.245,0.984,-0.208,-4.700,9.949,-4.700
0.263,0.980,-0.221,-4.333,9.399,-4.578
0.266,0.973,-0.223,-3.845,6.470,-2.197
0.246,0.963,-0.224,-3.357,2.014,1.587
0.237,0.935,-0.246,-3.296,-0.854,4.822
0.236,0.900,-0.261,-4.639,-2.625,7.202
0.235,0.901,-0.274,-6.409,-3.235,8.423
0.240,0.911,-0.288,-7.446,-3.052,8.240
0.230,0.914,-0.283,-6.775,-3.113,6.653
0.219,0.911,-0.282,-3.967,-2.319,5.310
0.215,0.913,-0.285,-0.671,-1.099,4.150
0.223,0.910,-0.290,1.892,0.061,2.502
0.223,0.901,-0.286,1.892,0.610,-0.183
0.216,0.896,-0.275,0.854,0.916,-3.418
0.236,0.895,-0.279,0.854,0.977,-5.615
0.244,0.892,-0.277,0.000,-0.610,-7.080
0.238,0.899,-0.251,-1.160,-2.441,-6.897
0.240,0.905,-0.258,-0.793,-2.563,-5.188
0.227,0.914,-0.257,-1.099,-2.197,-3.296
0.230,0.913,-0.268,-2.014,-0.610,-1.343
0.229,0.895,-0.281,-4.883,1.709,-0.061
0.238,0.893,-0.286,-8.728,3.723,0.305
0.233,0.901,-0.277,-12.146,5.127,0.183
0.231,0.905,-0.266,-15.442,6.897,-1.587
0.229,0.890,-0.262,-17.822,8.667,-4.333
0.230,0.890,-0.264,-18.188,10.315,-6.897
0.242,0.879,-0.272,-20.142,11.414,-10.498
0.247,0.878,-0.266,-23.865,11.536,-14.893
0.252,0.885,-0.285,-27.893,10.071,-19.226
0.246,0.862,-0.283,-32.654,7.690,-23.743
0.239,0.844,-0.281,-30.945,5.676,-24.658
0.228,0.840,-0.279,-31.860,5.066,-23.010
0.242,0.840,-0.296,-29.236,5.981,-17.151
0.262,0.858,-0.304,-23.132,6.897,-8.362
0.288,0.878,-0.335,-18.127,6.958,-1.221
0.278,0.897,-0.332,-14.404,5.432,4.333
0.252,0.907,-0.321,-10.071,3.113,8.179
0.244,0.900,-0.318,-4.272,1.831,10.681
0.227,0.891,-0.312,1.160,1.038,11.658
0.236,0.890,-0.327,5.920,0.305,10.498
0.249,0.877,-0.333,9.521,-1.282,7.019
0.247,0.883,-0.328,12.146,-3.479,2.747
0.249,0.895,-0.326,12.939,-4.944,-1.465
0.253,0.892,-0.328,12.390,-4.822,-4.517
0.249,0.888,-0.326,10.925,-3.967,-5.981
0.244,0.900,-0.328,9.705,-1.831,-5.737
0.253,0.889,-0.326,6.897,1.648,-4.700
0.256,0.890,-0.327,2.686,4.700,-3.479
0.257,0.896,-0.318,0.305,6.348,-1.648
0.258,0.911,-0.321,1.282,6.531,0.000
0.259,0.913,-0.325,4.028,4.822,0.610
0.256,0.906,-0.336,7.812,2.380,0.305
0.260,0.915,-0.345,11.475,0.488,0.061
0.257,0.920,-0.348,14.771,-0.244,-0.549
0.256,0.913,-0.345,17.517,0.244,-1.831
0.259,0.909,-0.354,19.165,1.953,-2.930
0.268,0.900,-0.350,18.738,3.967,-4.089
0.275,0.905,-0.338,17.761,4.944,-5.371
0.264,0.902,-0.326,16.907,4.761,-7.385
0.255,0.900,-0.305,17.090,3.723,-9.521
0.254,0.883,-0.299,18.860,2.747,-8.911
0.261,0.874,-0.302,20.630,1.221,-8.118
0.262,0.882,-0.302,20.569,-0.183,-5.859
0.261,0.870,-0.301,18.677,-1.831,-5.005
0.259,0.876,-0.300,16.479,-1.892,-3.418
0.254,0.878,-0.296,14.343,-1.038,-1.282
0.252,0.896,-0.287,12.146,1.099,0.793
0.252,0.907,-0.286,11.292,4.822,2.136
0.256,0.902,-0.289,10.986,8.301,2.625
0.256,0.898,-0.290,10.925,10.315,2.747
0.257,0.902,-0.276,10.986,10.559,2.502
0.257,0.901,-0.272,12.207,10.376,2.441
0.254,0.904,-0.272,14.648,9.766,1.953
0.262,0.909,-0.267,17.090,7.629,2.136
0.253,0.924,-0.248,19.531,4.333,2.258
0.247,0.925,-0.229,22.400,1.343,2.380
0.243,0.905,-0.233,25.452,-0.305,2.686
0.243,0.896,-0.216,25.391,-1.465,3.723

1.901,-0.420,-0.698,-285.645,-441.223,212.097
2.211,-0.349,-0.777,-257.690,-457.458,216.187
2.421,-0.242,-0.956,-215.698,-480.103,206.665
2.485,-0.072,-1.231,-155.090,-506.958,186.523
2.371,0.071,-1.417,-86.731,-538.086,153.198
2.230,0.253,-1.466,-14.893,-559.448,112.244
2.089,0.483,-2.346,64.880,-537.781,70.435
2.202,0.271,-3.566,57.922,-514.343,39.246
1.075,0.639,-3.568,52.063,-493.958,19.409
-1.303,1.476,-2.917,90.759,-316.833,37.903
-0.940,1.639,-1.850,165.405,-53.467,103.699
-0.330,1.622,-1.207,116.455,157.349,127.991
-0.005,1.511,-0.775,-21.057,295.349,143.616
0.160,1.287,-0.428,-140.747,375.000,173.645
0.396,1.136,-0.369,-115.112,397.461,177.246
0.673,0.950,-0.656,-25.757,338.928,135.925
0.835,0.830,-0.601,29.175,240.601,64.636
0.627,0.627,-0.375,-13.062,86.121,-0.977
0.335,0.590,0.212,-51.147,-74.280,-38.391
0.053,0.440,0.460,6.592,-151.001,-45.654
0.026,0.555,0.069,156.006,-122.681,-48.096
0.068,0.658,-0.133,146.240,-127.380,-41.809
0.095,0.603,-0.219,131.897,-118.896,-40.710
