aX,aY,aZ,gX,gY,gZ
-1.987,-0.570,0.265,-106.934,-70.190,-83.069
-1.979,-0.500,0.282,-117.798,-77.881,-79.346
-1.969,-0.642,0.327,-124.634,-90.698,-89.600
-1.868,-0.572,0.216,-95.337,-107.666,-93.750
-2.067,-0.576,0.186,-19.226,-125.671,-72.388
-2.233,-0.735,0.089,29.480,-140.442,-67.688
-2.225,-0.800,-0.017,43.457,-138.245,-75.317
-2.114,-0.781,-0.100,37.109,-131.897,-90.271
-2.060,-0.595,-0.158,34.668,-124.573,-108.032
-1.913,-0.497,-0.208,37.720,-108.582,-139.832
-1.665,-0.378,-0.175,45.166,-83.679,-179.077
-1.358,-0.248,-0.172,53.101,-49.866,-220.581
-0.910,-0.147,-0.087,63.782,-10.315,-259.583
-0.350,-0.118,-0.007,54.626,26.978,-289.978
0.211,-0.091,0.059,26.917,50.903,-301.880
0.787,0.107,0.241,-3.662,59.692,-288.818
1.445,0.450,0.352,-43.274,50.049,-246.521
1.867,1.040,0.370,-70.984,32.959,-184.692
2.063,1.729,0.396,-51.331,22.888,-130.005
2.178,2.310,0.354,27.771,17.029,-101.074
2.040,2.493,0.204,153.442,7.812,-100.830
1.805,2.273,-0.033,281.250,-0.610,-120.728
1.498,1.946,-0.124,363.037,-5.859,-148.621
1.178,1.533,-0.152,373.169,-5.493,-173.645
0.949,1.075,-0.191,302.734,-3.113,-191.833
0.796,0.945,-0.238,169.861,-7.507,-196.838
0.492,1.244,-0.345,24.658,-15.930,-190.674
0.678,1.218,-0.591,-86.426,-22.949,-178.406
0.274,1.492,-0.486,-137.512,-43.884,-144.409
0.250,1.523,-0.592,-176.819,-37.659,-111.145
0.234,1.487,-0.582,-194.397,-16.235,-72.327
0.238,1.461,-0.594,-174.866,6.226,-40.405
0.261,1.375,-0.551,-135.742,27.588,-24.658
0.292,1.280,-0.465,-88.989,44.983,-19.470
0.296,1.176,-0.354,-41.809,54.749,-21.057
0.283,1.073,-0.267,-1.404,60.791,-24.841
0.280,1.030,-0.199,29.602,67.261,-25.330
0.325,1.026,-0.143,52.368,73.730,-19.348
0.399,1.041,-0.081,66.650,77.637,-8.057
0.455,1.065,-0.031,73.486,76.538,5.981
0.478,1.060,0.015,77.271,72.510,20.752
0.459,1.045,0.061,78.186,67.688,33.386
0.404,0.998,0.102,75.134,62.927,43.640
0.335,0.954,0.130,66.956,58.105,51.025
0.258,0.922,0.143,54.504,51.086,54.993
0.163,0.888,0.121,39.734,40.588,54.382
0.054,0.849,0.102,24.536,30.823,50.110
-0.064,0.817,0.098,8.179,25.146,43.640
-0.153,0.832,0.093,-9.827,25.513,37.354
-0.190,0.855,0.091,-26.001,29.114,32.288
-0.191,0.901,0.097,-38.757,33.569,28.870
-0.202,0.936,0.082,-45.471,36.682,25.574
-0.193,0.993,0.087,-45.227,38.818,22.278
-0.147,1.043,0.096,-37.598,38.452,19.775
-0.116,1.084,0.096,-23.621,34.058,17.761
-0.073,1.124,0.092,-5.554,26.062,15.869
-0.043,1.124,0.071,14.648,15.686,13.367
-0.075,1.096,0.030,32.043,3.662,8.911
-0.120,1.074,-0.020,40.955,-7.812,3.967
-0.180,1.038,-0.043,41.199,-16.541,-0.977
-0.250,1.003,-0.045,36.072,-19.531,-3.967
-0.343,0.984,-0.075,30.518,-14.343,-2.075
-0.436,0.959,-0.105,24.414,-2.747,6.470
-0.485,0.922,-0.061,13.794,12.146,21.545
-0.490,0.897,-0.085,-5.249,25.696,37.964
-0.495,0.942,-0.056,-23.499,36.133,52.979
-0.461,0.956,-0.051,-33.020,40.894,65.491
-0.412,0.972,-0.033,-33.997,38.635,71.716
-0.399,0.959,-0.014,-29.358,31.433,70.984
-0.384,0.970,0.020,-20.508,21.606,66.650
-0.389,0.962,0.047,-9.033,10.376,60.547
-0.425,0.965,0.061,3.479,-0.610,52.734
-0.529,0.900,0.053,16.602,-10.681,47.363
-0.625,0.846,0.052,27.039,-18.250,48.523
-0.684,0.827,0.057,33.875,-20.630,57.251
-0.710,0.785,0.057,36.499,-18.188,70.313
-0.695,0.772,0.055,37.292,-12.329,82.764
-0.653,0.744,0.073,36.438,-6.165,90.637
-0.650,0.695,0.094,33.203,-1.465,92.773
-0.634,0.697,0.103,27.039,2.686,90.088
-0.643,0.689,0.117,20.569,5.066,83.862
-0.673,0.678,0.131,15.076,5.859,76.721
-0.705,0.695,0.144,9.644,5.920,69.458
-0.729,0.716,0.150,6.775,5.554,62.195
-0.746,0.728,0.160,8.057,5.615,55.115
-0.740,0.726,0.175,12.329,6.897,48.584
-0.747,0.735,0.179,16.235,7.935,43.884
-0.733,0.757,0.188,19.226,9.521,40.771
-0.727,0.762,0.201,19.897,12.939,39.612
-0.703,0.775,0.210,18.372,17.029,41.016
-0.659,0.778,0.216,16.113,19.714,43.762
-0.634,0.787,0.218,14.038,20.264,46.936
-0.604,0.781,0.212,11.658,19.165,49.988
-0.598,0.775,0.218,9.338,16.663,51.941
-0.621,0.780,0.214,7.690,13.000,52.856
-0.642,0.759,0.218,8.545,8.911,52.124
-0.654,0.734,0.215,11.963,4.395,50.476
-0.680,0.708,0.211,16.479,0.183,48.401
-0.681,0.698,0.205,20.325,-2.319,45.593
-0.696,0.675,0.190,22.583,-3.479,41.870
-0.657,0.644,0.192,21.790,-2.869,37.292
-0.683,0.611,0.173,20.508,-5.066,32.471
-0.662,0.601,0.167,16.235,-5.798,28.442
-0.684,0.609,0.147,10.742,-6.958,25.879
-0.694,0.606,0.137,2.930,-6.470,23.865
-0.697,0.615,0.126,-4.211,-5.371,22.705
-0.674,0.623,0.110,-10.315,-4.272,20.020
-0.694,0.622,0.097,-14.343,-4.272,17.517
-0.700,0.641,0.088,-16.846,-4.517,16.235
-0.693,0.644,0.079,-17.700,-4.761,14.954
-0.701,0.641,0.068,-16.968,-4.883,13.245
-0.702,0.647,0.057,-15.686,-5.188,11.841
-0.708,0.646,0.047,-13.977,-5.615,10.803
-0.719,0.652,0.039,-11.963,-5.615,10.437
-0.721,0.656,0.034,-10.803,-5.066,10.254
-0.732,0.654,0.036,-10.742,-3.845,10.193
-0.744,0.652,0.041,-11.169,-2.014,10.742
-0.735,0.654,0.049,-12.024,-0.183,11.536
-0.735,0.657,0.058,-12.756,1.221,12.390

-2.240,-0.156,0.322,-20.813,-21.606,-39.185
-2.281,-0.143,0.311,-43.152,-34.058,-54.260
-2.254,-0.125,0.278,-56.152,-46.814,-74.768
-2.234,-0.100,0.197,-58.105,-61.340,-96.069
-2.194,-0.059,0.105,-55.786,-75.378,-115.967
-2.129,0.018,-0.007,-51.636,-87.646,-132.202
-2.080,0.108,-0.105,-44.067,-96.924,-144.348
-2.070,0.188,-0.153,-28.442,-99.304,-151.733
-1.950,0.247,-0.174,-9.705,-92.102,-154.785
-1.680,0.270,-0.155,6.897,-79.529,-153.076
-1.332,0.170,-0.155,23.132,-65.918,-150.146
-1.071,-0.090,-0.142,38.635,-51.086,-146.606
-0.708,-0.386,-0.012,36.255,-26.306,-133.911
-0.063,-0.607,0.199,0.244,4.578,-108.826
0.888,-0.642,0.430,-62.012,28.198,-75.623
2.015,-0.191,0.506,-124.390,38.635,-38.940
3.168,0.669,0.557,-130.920,33.447,-9.644
3.997,2.000,0.571,-38.879,19.348,7.019
4.000,3.174,0.510,115.356,10.498,-11.353
3.748,3.486,0.033,271.973,-4.578,-75.317
2.689,3.140,-0.359,414.368,-17.090,-142.883
1.969,2.154,-0.475,445.679,-21.729,-188.782
1.387,1.314,-0.715,305.420,-43.152,-196.106
0.980,0.972,-0.853,48.584,-77.454,-144.592
0.278,1.529,-0.743,-199.646,-106.689,-54.565
0.421,1.925,-0.647,-361.816,-78.247,16.968
0.398,2.052,-0.555,-382.324,-31.921,54.810
0.406,1.925,-0.546,-285.278,0.854,58.105
0.335,1.566,-0.399,-139.954,13.367,40.771
0.326,1.155,-0.242,-10.925,14.221,23.865
0.326,0.909,-0.099,66.101,8.728,11.780
0.270,0.703,0.030,101.563,6.714,3.418
0.263,0.648,0.143,110.596,13.611,-5.127
0.272,0.682,0.244,109.070,26.001,-15.442
0.296,0.770,0.294,103.760,38.025,-25.635
0.268,0.820,0.304,98.328,46.326,-33.264
0.244,0.758,0.338,101.807,52.551,-29.968
0.277,0.730,0.355,98.145,54.626,-15.747
0.240,0.722,0.339,74.768,49.927,1.465
0.189,0.796,0.378,30.945,45.898,16.907
0.174,0.963,0.319,-22.034,42.786,24.841
0.125,1.057,0.281,-60.608,36.255,25.330
0.124,1.161,0.248,-85.693,27.527,20.935
0.131,1.229,0.171,-93.567,17.456,15.381
0.074,1.244,0.100,-81.177,7.141,12.634
0.007,1.225,0.064,-55.176,0.000,14.404
-0.075,1.167,0.038,-28.259,-4.395,20.203
-0.152,1.113,-0.009,-2.197,-5.920,33.447
-0.211,1.064,-0.036,19.104,-5.615,52.063
-0.258,1.030,-0.035,29.114,-3.662,68.420
-0.320,0.970,-0.021,33.691,-1.221,80.383
-0.331,0.913,-0.016,35.156,0.366,86.243
-0.422,0.828,0.003,30.701,-0.916,81.360
-0.463,0.794,0.005,24.963,-2.869,74.158
-0.522,0.752,0.004,20.508,-5.188,67.810
-0.612,0.710,0.008,16.907,-5.981,64.087
-0.667,0.687,0.012,11.780,-4.578,64.941
-0.655,0.701,0.008,6.409,-0.916,70.557
-0.605,0.710,0.006,1.648,3.296,76.538
-0.605,0.687,-0.009,-3.723,6.348,80.017
-0.646,0.688,-0.014,-12.024,8.484,80.444
-0.681,0.692,-0.028,-22.949,11.230,79.956
-0.716,0.684,-0.038,-34.790,15.320,78.918
-0.713,0.708,-0.031,-46.631,19.531,77.209
-0.701,0.750,-0.044,-54.260,20.874,72.693
-0.661,0.778,-0.046,-53.833,19.409,64.880
-0.617,0.825,-0.047,-47.119,15.137,55.237
-0.607,0.817,-0.035,-34.607,8.545,47.119
-0.588,0.829,-0.046,-20.935,2.991,42.603
-0.595,0.797,-0.066,-7.935,-0.610,41.931
-0.641,0.741,-0.082,0.732,-2.136,43.945
-0.690,0.730,-0.108,3.357,-2.197,48.828
-0.737,0.710,-0.137,1.526,-1.953,54.138
-0.780,0.665,-0.162,-3.845,-2.319,59.265
-0.837,0.638,-0.172,-13.550,-2.563,65.063
-0.854,0.648,-0.173,-25.940,-2.258,70.862
-0.809,0.692,-0.178,-35.645,-1.587,75.012
-0.773,0.722,-0.164,-38.513,-0.427,75.134
-0.750,0.758,-0.144,-33.630,1.343,70.984
-0.708,0.783,-0.123,-22.034,3.296,63.171
-0.700,0.772,-0.091,-7.568,5.859,52.246
-0.723,0.728,-0.065,5.920,7.751,41.443
-0.726,0.710,-0.049,17.273,8.789,33.630
-0.777,0.659,-0.033,26.001,8.972,28.809
-0.812,0.614,-0.020,30.273,9.460,27.771
-0.801,0.605,-0.017,28.992,9.888,29.175
-0.800,0.602,-0.021,24.841,9.460,30.029
-0.806,0.597,-0.030,19.226,8.789,28.625
-0.800,0.606,-0.033,12.634,8.240,26.306
-0.770,0.634,-0.035,5.920,8.301,23.499
-0.764,0.648,-0.038,0.549,7.996,19.897
-0.754,0.666,-0.044,-2.625,8.057,16.663
-0.727,0.695,-0.045,-3.723,9.094,14.526
-0.716,0.715,-0.035,-2.075,10.925,12.756
-0.728,0.712,-0.026,1.587,13.062,11.108
-0.730,0.698,-0.008,6.104,16.113,10.559
-0.723,0.674,0.008,8.606,18.433,11.108
-0.720,0.664,0.023,7.629,18.982,12.329
-0.715,0.664,0.032,4.639,18.250,13.367
-0.719,0.652,0.037,2.014,16.357,14.099
-0.721,0.638,0.035,0.793,13.977,14.709
-0.715,0.632,0.028,-0.549,11.414,15.137
-0.722,0.634,0.020,-2.258,8.911,14.832
-0.726,0.640,0.013,-4.211,6.592,13.550
-0.738,0.641,0.002,-5.798,4.822,12.085
-0.747,0.646,-0.003,-7.019,4.028,11.292
-0.741,0.664,-0.015,-8.423,4.639,10.498
-0.731,0.663,-0.023,-9.827,6.470,9.399
-0.731,0.671,-0.024,-10.864,7.690,7.996
-0.727,0.673,-0.022,-11.658,8.484,7.629
-0.710,0.684,-0.018,-12.451,8.972,8.057
-0.711,0.693,-0.015,-13.062,8.728,8.667
-0.709,0.696,-0.011,-13.123,8.362,8.667
-0.716,0.701,-0.010,-12.573,7.751,8.606
-0.718,0.699,-0.005,-11.719,7.507,8.423
-0.729,0.680,-0.003,-10.376,6.775,7.996
-0.729,0.673,0.003,-8.972,5.737,7.629
-0.736,0.666,0.007,-7.690,4.150,7.263
-0.745,0.664,0.013,-5.615,2.686,6.592

-2.465,-0.218,-0.020,-52.307,-51.880,-147.583
-2.390,-0.293,0.005,-54.626,-59.570,-156.250
-2.223,-0.313,0.034,-63.599,-64.392,-165.405
-1.972,-0.362,0.054,-67.810,-68.848,-176.514
-1.639,-0.394,0.125,-64.758,-70.435,-185.974
-1.199,-0.405,0.175,-59.387,-66.589,-193.420
-0.702,-0.488,0.224,-52.429,-56.946,-195.374
-0.099,-0.569,0.318,-49.500,-40.527,-187.073
0.604,-0.579,0.410,-52.490,-20.386,-170.227
1.672,-0.408,0.477,-56.763,-4.333,-145.874
3.383,0.460,0.359,-47.058,-5.371,-116.577
4.000,2.155,0.091,36.499,-34.485,-84.656
4.000,3.290,-0.002,220.154,-68.787,-78.308
3.619,3.284,-0.269,383.362,-86.121,-107.849
2.604,2.821,-0.505,467.896,-75.623,-136.169
2.024,2.185,-0.604,455.566,-49.988,-122.437
1.161,1.568,-0.584,322.876,-32.349,-62.073
0.523,1.180,-0.692,97.778,-9.277,10.376
0.483,1.256,-0.595,-123.291,11.841,73.547
0.305,1.536,-0.448,-271.667,31.738,101.990
0.314,1.469,-0.372,-297.607,51.270,98.206
-0.078,1.195,0.060,-219.971,42.053,81.177
-0.163,0.872,0.080,-97.351,36.865,64.087
-0.233,0.585,0.231,16.296,32.532,49.133
-0.229,0.331,0.306,94.788,26.489,30.884
-0.217,0.259,0.395,128.967,18.494,9.094
-0.219,0.281,0.447,133.545,14.038,-12.329
-0.118,0.339,0.477,115.356,14.526,-34.302
-0.033,0.461,0.450,81.421,14.038,-51.575
0.005,0.636,0.410,45.349,9.705,-59.082
0.057,0.768,0.342,17.578,3.357,-60.242
0.053,0.864,0.256,1.953,-4.395,-54.199
0.047,0.905,0.148,-7.202,-13.794,-43.396
0.007,0.926,0.042,-15.076,-24.475,-31.067
-0.044,1.000,-0.035,-22.461,-33.447,-20.752
-0.083,1.088,-0.095,-27.771,-36.316,-14.832
-0.102,1.158,-0.144,-29.297,-32.166,-11.719
-0.106,1.193,-0.187,-28.381,-23.804,-9.460
-0.097,1.221,-0.202,-26.123,-14.771,-7.080
-0.108,1.242,-0.191,-21.240,-6.958,-4.028
-0.082,1.250,-0.176,-12.939,-0.488,-1.343
-0.091,1.237,-0.176,-5.554,4.028,1.892
-0.114,1.227,-0.159,-0.183,6.348,6.470
-0.129,1.211,-0.140,2.869,6.836,10.803
-0.158,1.171,-0.116,3.113,5.859,14.465
-0.179,1.128,-0.089,0.427,4.639,18.127
-0.196,1.103,-0.079,-5.737,3.784,22.217
-0.176,1.079,-0.084,-12.939,2.991,25.085
-0.228,1.044,-0.073,-19.531,0.427,26.001
-0.255,1.047,-0.076,-27.161,-0.183,24.658
-0.240,1.031,-0.093,-31.006,1.160,21.484
-0.248,1.007,-0.103,-30.518,1.404,17.639
-0.260,0.989,-0.117,-28.259,0.854,13.855
-0.266,0.978,-0.129,-25.330,1.160,10.559
-0.268,0.969,-0.137,-22.217,1.587,7.568
-0.264,0.959,-0.159,-20.813,1.709,5.066
-0.265,0.970,-0.180,-21.606,1.404,3.418
-0.291,1.037,-0.146,-19.287,0.732,1.709
-0.252,1.044,-0.151,-14.832,0.916,-1.648
-0.257,1.022,-0.149,-8.850,0.305,-4.883
-0.268,1.020,-0.146,-4.578,0.000,-5.737
-0.248,0.998,-0.151,-3.540,0.000,-4.700
-0.236,1.002,-0.149,-3.113,-0.305,-3.967
-0.215,0.985,-0.149,-1.770,-0.793,-4.089
-0.205,0.972,-0.145,-0.427,-1.221,-4.211
-0.204,0.953,-0.139,0.427,-1.587,-3.784
-0.202,0.949,-0.148,0.183,-0.732,-2.502
-0.207,0.945,-0.152,-0.183,0.000,0.000
-0.206,0.951,-0.139,-0.305,1.099,2.441
-0.199,0.950,-0.126,-0.610,2.563,3.723
-0.196,0.951,-0.107,-1.038,3.296,3.784
-0.196,0.956,-0.098,-0.549,3.906,2.136
-0.196,0.959,-0.074,1.953,4.456,-0.244
-0.203,0.967,-0.044,4.944,4.883,-2.258
-0.190,0.965,-0.040,7.996,4.883,-4.089
-0.182,0.942,-0.034,11.414,3.540,-5.859
-0.184,0.939,-0.026,13.062,2.136,-7.141
-0.183,0.940,-0.021,12.207,1.526,-7.141
-0.188,0.942,-0.017,10.254,1.465,-6.165
-0.190,0.942,-0.008,8.301,1.526,-4.822
-0.182,0.948,-0.007,7.141,1.526,-3.723
-0.171,0.944,-0.019,6.958,0.916,-2.869
-0.170,0.938,-0.020,6.836,-0.549,-2.502
-0.165,0.946,-0.024,5.981,-1.831,-2.258
-0.170,0.952,-0.035,4.272,-2.197,-2.075
-0.179,0.956,-0.042,2.563,-1.770,-1.221
-0.183,0.976,-0.046,1.343,-1.160,-0.366
-0.179,0.986,-0.051,1.831,-0.488,0.305
-0.176,0.982,-0.056,3.479,0.610,1.038
-0.177,0.968,-0.056,4.944,1.404,1.953
-0.180,0.948,-0.055,5.066,2.441,3.113
-0.179,0.940,-0.048,3.967,3.174,4.028
-0.177,0.942,-0.037,2.869,3.113,4.395
-0.173,0.941,-0.028,2.991,2.197,3.967
-0.176,0.936,-0.024,4.272,1.038,3.723
-0.176,0.926,-0.027,5.859,0.000,4.272
-0.174,0.914,-0.037,6.714,-0.610,5.066
-0.181,0.910,-0.050,5.737,-1.526,5.859
-0.189,0.909,-0.058,3.235,-2.258,6.287
-0.202,0.921,-0.057,0.549,-2.441,5.798
-0.211,0.936,-0.059,-1.465,-2.075,4.639
-0.202,0.951,-0.057,-2.197,-1.343,3.418
-0.193,0.954,-0.062,-1.770,-0.916,2.441
-0.184,0.954,-0.067,-1.099,-1.465,2.136
-0.178,0.950,-0.073,-0.305,-2.563,1.953
-0.179,0.942,-0.079,0.427,-3.906,1.953
-0.193,0.935,-0.089,0.610,-5.066,1.831
-0.205,0.939,-0.097,0.305,-5.432,1.831
-0.210,0.943,-0.096,0.305,-4.944,1.770
-0.219,0.951,-0.119,-0.122,-3.723,2.441
-0.224,0.963,-0.108,-0.854,-1.587,3.418
-0.228,0.970,-0.114,-0.916,0.305,4.517
-0.220,0.970,-0.108,-1.526,2.502,5.188
-0.224,0.973,-0.096,-1.770,3.845,5.737
-0.231,0.977,-0.084,-2.136,4.700,5.981
-0.212,0.970,-0.075,-2.686,5.188,6.165
-0.204,0.958,-0.071,-2.808,4.089,6.592
-0.214,0.958,-0.068,-3.296,2.258,7.690
-0.229,0.958,-0.069,-4.395,0.916,9.033

2.874,0.053,0.224,-101.135,51.453,-173.584
3.422,0.996,0.166,-62.683,31.555,-133.362
3.856,1.910,0.226,22.766,16.357,-118.042
3.829,2.692,0.074,116.089,2.869,-136.414
3.328,3.353,-0.100,243.225,-27.100,-163.147
2.162,3.146,-0.252,372.131,-57.129,-180.176
1.275,2.018,-0.630,374.756,-68.787,-172.729
0.612,1.359,-0.973,225.525,-91.675,-104.980
0.114,1.579,-1.107,-7.202,-93.567,-6.653
0.085,1.878,-0.999,-200.195,-65.491,78.003
-0.072,2.054,-0.853,-283.142,-22.583,124.695
-0.224,1.933,-0.778,-258.301,17.334,130.066
-0.048,1.586,-0.684,-196.777,58.105,87.036
-0.153,1.187,-0.521,-94.604,68.970,62.134
-0.075,0.774,-0.367,-17.456,69.763,47.485
-0.088,0.714,-0.092,24.292,63.538,41.992
-0.108,0.701,0.231,46.570,59.021,37.720
-0.009,0.680,0.369,58.655,54.993,29.114
-0.055,0.670,0.476,73.059,44.983,15.686
-0.019,0.574,0.472,83.069,28.748,0.916
0.013,0.560,0.408,79.590,6.897,-10.010
-0.018,0.646,0.356,66.956,-16.052,-16.541
-0.033,0.766,0.227,48.096,-31.494,-22.583
-0.042,0.884,0.038,24.658,-40.894,-28.015
-0.064,1.014,-0.120,2.197,-46.387,-31.494
-0.093,1.160,-0.245,-16.968,-45.410,-30.151
-0.115,1.253,-0.356,-31.006,-37.842,-24.597
-0.126,1.274,-0.431,-37.354,-27.222,-15.747
-0.123,1.309,-0.477,-37.354,-15.930,-4.822
-0.138,1.325,-0.449,-27.710,-4.211,5.371
-0.116,1.266,-0.391,-9.521,8.728,13.000
-0.106,1.191,-0.299,12.085,18.921,15.991
-0.092,1.100,-0.221,31.555,25.879,13.855
-0.101,1.006,-0.140,45.044,27.527,9.644
-0.103,0.943,-0.062,50.354,26.917,5.798
-0.106,0.924,-0.017,48.523,24.475,3.052
-0.117,0.901,0.001,43.579,20.325,0.977
-0.113,0.885,-0.006,34.668,14.893,-0.610
-0.131,0.868,-0.020,23.499,8.240,-0.671
-0.137,0.884,-0.046,9.766,2.625,1.282
-0.145,0.913,-0.069,-1.892,-1.587,4.333
-0.156,0.905,-0.115,-8.301,-3.784,6.653
-0.175,0.902,-0.136,-12.329,-4.883,8.911
-0.200,0.923,-0.160,-16.113,-4.272,11.292
-0.212,0.933,-0.169,-17.639,-2.319,12.024
-0.214,0.937,-0.172,-15.564,0.000,10.498
-0.219,0.927,-0.168,-11.108,2.014,7.690
-0.216,0.926,-0.162,-5.981,4.028,4.761
-0.216,0.919,-0.148,-0.793,5.737,2.197
-0.224,0.918,-0.137,4.089,7.202,0.183
-0.214,0.921,-0.129,7.996,7.874,-1.282
-0.211,0.927,-0.117,10.315,7.568,-2.625
-0.217,0.924,-0.102,10.559,7.202,-3.662
-0.212,0.911,-0.095,8.606,6.714,-3.784
-0.207,0.903,-0.093,4.822,5.249,-3.845
-0.212,0.896,-0.081,1.038,2.991,-3.723
-0.212,0.910,-0.071,-1.953,1.953,-2.991
-0.211,0.926,-0.073,-4.028,1.526,-1.709
-0.212,0.939,-0.069,-5.066,1.160,-1.160
-0.209,0.942,-0.065,-4.395,0.671,-1.709
-0.214,0.937,-0.060,-2.747,0.549,-2.747
-0.206,0.943,-0.061,-1.160,0.854,-3.479
-0.200,0.942,-0.062,0.366,1.221,-4.028
-0.204,0.952,-0.060,1.770,1.343,-4.456
-0.195,0.973,-0.057,3.113,1.892,-4.333
-0.189,0.976,-0.059,4.517,2.441,-4.517
-0.186,0.978,-0.062,5.432,2.686,-4.578
-0.177,0.981,-0.072,6.287,2.441,-4.150
-0.179,0.993,-0.067,6.897,1.831,-3.418
-0.177,1.009,-0.070,7.324,1.160,-2.258
-0.173,1.005,-0.075,7.141,0.916,-0.793
-0.177,0.994,-0.083,6.042,0.732,1.160
-0.178,0.989,-0.092,3.967,0.061,3.052
-0.183,0.988,-0.097,2.563,-0.793,4.456
-0.188,0.974,-0.097,1.953,-1.526,5.127
-0.184,0.958,-0.099,1.404,-1.221,6.165
-0.190,0.948,-0.095,1.160,-1.099,7.324
-0.191,0.943,-0.098,1.160,-1.099,7.935
-0.193,0.936,-0.099,2.014,-1.160,7.446
-0.188,0.930,-0.094,3.479,-1.221,6.348
-0.193,0.927,-0.091,4.272,-1.587,5.310
-0.196,0.920,-0.089,4.639,-1.404,4.883
-0.192,0.916,-0.092,4.517,-1.343,4.578
-0.192,0.917,-0.094,3.418,-1.404,4.150
-0.186,0.910,-0.099,1.587,-1.343,3.418
-0.192,0.912,-0.108,-0.610,-1.526,3.296
-0.199,0.920,-0.115,-2.930,-1.526,3.845
-0.198,0.930,-0.123,-4.639,-1.648,4.700
-0.204,0.933,-0.129,-4.944,-2.014,5.310
-0.210,0.932,-0.135,-4.578,-2.136,5.859
-0.213,0.936,-0.139,-4.150,-1.526,6.104
-0.216,0.947,-0.140,-2.808,-0.366,6.042
-0.222,0.952,-0.133,-0.977,0.793,5.676
-0.222,0.957,-0.126,0.793,1.831,4.700
-0.217,0.956,-0.114,3.174,2.563,3.540
-0.217,0.948,-0.101,5.737,2.625,1.953
-0.220,0.935,-0.092,7.568,2.380,0.122
-0.224,0.929,-0.083,8.423,2.686,-0.854
-0.216,0.932,-0.078,8.362,3.296,-1.221
-0.208,0.937,-0.080,8.240,3.296,-1.465
-0.202,0.934,-0.078,7.935,2.869,-1.404
-0.201,0.935,-0.076,5.859,1.709,-1.465
-0.200,0.942,-0.074,2.991,0.549,-1.770
-0.198,0.942,-0.076,0.610,-0.488,-2.075
-0.196,0.949,-0.078,0.305,-1.648,-2.441
-0.199,0.951,-0.085,1.160,-2.014,-2.441
-0.194,0.955,-0.090,2.563,-2.014,-2.075
-0.191,0.965,-0.093,2.869,-1.282,-1.465
-0.197,0.966,-0.094,2.075,-0.427,-2.014
-0.190,0.967,-0.107,0.854,0.549,-2.808
-0.191,0.965,-0.105,1.099,1.343,-2.686
-0.192,0.969,-0.102,1.282,2.502,-2.319
-0.187,0.965,-0.103,1.648,3.723,-1.953
-0.182,0.959,-0.100,1.770,4.639,-2.197
-0.181,0.959,-0.096,1.892,5.005,-2.441
-0.180,0.968,-0.090,1.648,4.944,-2.441
-0.177,0.974,-0.086,2.686,4.395,-2.319
-0.181,0.982,-0.083,4.456,4.028,-1.648
-0.180,0.987,-0.084,5.310,4.028,-0.793

3.332,1.005,0.477,-18.250,-44.922,-150.696
3.692,1.926,0.419,105.164,-71.960,-159.058
3.412,2.711,0.268,241.577,-77.393,-196.899
3.058,3.115,0.013,368.958,-75.378,-239.624
2.212,2.655,-0.129,439.270,-72.998,-266.785
1.409,1.879,-0.540,383.423,-68.176,-252.380
1.062,1.608,-1.101,202.576,-82.214,-171.143
0.324,2.330,-0.999,-14.404,-124.512,-37.781
0.118,2.591,-1.033,-211.304,-112.854,36.621
0.049,2.446,-1.022,-298.157,-74.768,101.990
-0.065,1.965,-1.070,-307.312,-34.241,140.564
-0.273,1.787,-0.904,-267.517,0.854,164.917
-0.228,1.643,-0.707,-191.650,40.222,160.522
-0.088,1.339,-0.530,-95.642,69.580,125.183
-0.023,0.927,-0.430,-8.179,73.425,88.684
-0.083,0.606,-0.312,39.673,63.660,61.829
-0.145,0.530,-0.153,47.974,55.359,43.640
-0.136,0.562,-0.008,37.354,53.894,30.762
-0.171,0.615,0.140,27.466,55.786,18.433
-0.140,0.633,0.193,23.743,58.594,4.883
-0.109,0.630,0.213,23.193,53.345,-7.324
-0.102,0.681,0.224,24.963,42.358,-16.052
-0.119,0.767,0.200,29.114,28.381,-21.545
-0.134,0.835,0.134,35.339,13.550,-25.146
-0.138,0.926,0.063,40.894,-0.488,-28.076
-0.129,1.017,-0.007,44.861,-11.230,-30.579
-0.135,1.062,-0.092,46.997,-18.005,-32.471
-0.158,1.075,-0.147,45.532,-19.409,-31.250
-0.153,1.100,-0.198,38.879,-15.198,-26.062
-0.142,1.132,-0.231,27.222,-6.775,-18.250
-0.148,1.154,-0.242,16.724,1.831,-9.460
-0.128,1.167,-0.238,10.559,9.705,-2.808
-0.126,1.140,-0.213,9.705,15.137,1.770
-0.135,1.123,-0.168,11.475,17.212,4.822
-0.136,1.095,-0.121,14.893,18.921,6.287
-0.147,1.053,-0.090,18.616,19.409,6.775
-0.138,1.017,-0.068,20.081,18.188,6.226
-0.135,0.967,-0.068,19.104,13.916,4.944
-0.150,0.900,-0.063,16.052,8.362,3.540
-0.168,0.851,-0.058,9.094,3.845,4.517
-0.189,0.833,-0.067,-1.892,1.343,7.019
-0.199,0.831,-0.073,-12.268,0.610,9.033
-0.211,0.854,-0.085,-19.775,0.305,9.827
-0.215,0.890,-0.121,-22.766,0.122,9.216
-0.207,0.902,-0.142,-19.592,0.244,7.629
-0.216,0.910,-0.165,-15.625,0.366,6.287
-0.213,0.928,-0.181,-13.916,1.465,5.554
-0.220,0.941,-0.182,-12.695,3.113,5.005
-0.220,0.951,-0.175,-11.841,5.310,4.150
-0.220,0.954,-0.164,-10.315,7.446,3.540
-0.219,0.948,-0.146,-7.690,8.484,2.991
-0.210,0.931,-0.129,-4.883,8.240,2.197
-0.204,0.900,-0.112,-1.892,6.714,0.977
-0.210,0.865,-0.095,0.549,3.906,-0.549
-0.219,0.838,-0.078,1.465,2.136,-0.549
-0.222,0.834,-0.068,0.183,2.197,1.404
-0.214,0.840,-0.064,-1.587,2.502,2.930
-0.211,0.835,-0.068,-2.258,1.892,3.296
-0.219,0.833,-0.069,-2.502,0.732,2.563
-0.218,0.844,-0.083,-2.808,-0.366,1.648
-0.217,0.853,-0.094,-2.686,-1.099,0.366
-0.219,0.877,-0.101,-2.930,-0.977,-0.183
-0.222,0.902,-0.106,-3.296,0.122,-0.427
-0.214,0.927,-0.108,-2.747,1.648,-0.793
-0.217,0.935,-0.106,-1.526,3.357,-1.343
-0.216,0.938,-0.107,-0.366,5.066,-1.648
-0.212,0.938,-0.101,1.709,5.249,-1.648
-0.210,0.929,-0.090,4.028,5.249,-1.343
-0.209,0.926,-0.082,4.944,5.249,-0.671
-0.208,0.919,-0.075,3.906,5.615,-0.061
-0.208,0.917,-0.073,2.869,5.554,-0.122
-0.209,0.916,-0.077,1.831,4.822,-0.549
-0.208,0.927,-0.081,1.831,3.540,-0.916
-0.203,0.931,-0.089,2.441,2.197,-1.282
-0.200,0.929,-0.106,3.479,0.977,-1.282
-0.210,0.921,-0.115,3.967,-0.244,-0.854
-0.227,0.922,-0.113,2.136,-0.427,0.488
-0.240,0.922,-0.119,-0.671,0.366,1.831
-0.241,0.935,-0.117,-2.930,1.221,2.502
-0.243,0.936,-0.120,-3.906,2.014,2.014
-0.241,0.948,-0.116,-3.418,2.747,0.610
-0.239,0.944,-0.120,-2.258,3.540,-0.671
-0.239,0.939,-0.115,-1.587,4.333,-1.343
-0.234,0.937,-0.115,-1.770,4.761,-1.770
-0.233,0.936,-0.124,-2.502,4.395,-1.953
-0.233,0.950,-0.128,-3.235,3.723,-1.831
-0.231,0.961,-0.137,-3.540,3.296,-1.465
-0.235,0.967,-0.145,-2.747,2.686,-0.732
-0.236,0.970,-0.148,-1.648,2.625,-0.061
-0.236,0.978,-0.148,-1.038,2.747,0.305
-0.237,0.978,-0.148,-0.732,2.991,0.061
-0.236,0.975,-0.143,-0.183,3.235,-0.244
-0.238,0.978,-0.138,0.305,3.052,-0.183
-0.239,0.984,-0.142,0.183,2.991,0.183
-0.236,0.980,-0.129,-0.061,2.686,0.244
-0.245,0.975,-0.130,-0.549,2.563,0.183
-0.235,0.974,-0.128,-1.404,2.563,0.122
-0.237,0.965,-0.128,-1.709,2.258,0.244
-0.239,0.959,-0.128,-1.709,1.526,0.610
-0.239,0.951,-0.131,-1.831,1.587,1.221
-0.237,0.943,-0.139,-1.343,1.648,1.770
-0.237,0.944,-0.145,-1.282,1.892,2.014
-0.237,0.949,-0.147,-1.953,2.197,1.587
-0.230,0.964,-0.151,-2.136,3.174,1.160
-0.222,0.972,-0.152,-1.526,4.089,0.610
-0.218,0.969,-0.150,-0.305,4.578,-0.183
-0.211,0.966,-0.149,0.427,4.761,-0.061
-0.207,0.963,-0.144,0.916,4.150,0.671
-0.212,0.953,-0.135,2.441,2.930,1.465
-0.219,0.935,-0.134,4.089,2.197,2.441
-0.217,0.923,-0.136,3.845,2.136,3.113
-0.213,0.918,-0.131,2.197,2.075,3.174
-0.210,0.911,-0.128,0.244,2.197,2.441
-0.204,0.917,-0.126,-1.709,2.747,1.892
-0.200,0.916,-0.126,-2.747,3.113,1.831
-0.210,0.917,-0.125,-3.296,2.991,1.709
-0.215,0.925,-0.121,-3.113,2.625,1.526
-0.218,0.931,-0.118,-1.709,2.197,1.099
-0.224,0.932,-0.116,0.122,2.197,0.610

2.806,0.344,0.361,-156.250,-71.106,-82.153
3.427,1.013,0.293,-74.463,-108.765,-64.880
3.753,1.802,0.163,53.345,-139.038,-72.571
3.361,2.673,-0.008,205.444,-147.217,-118.774
2.916,2.968,-0.219,354.919,-129.150,-194.580
2.027,2.550,-0.607,443.237,-107.788,-256.958
1.313,2.083,-1.223,390.381,-101.685,-263.367
0.848,2.608,-1.578,202.637,-111.694,-191.101
-0.274,2.055,-1.736,-33.630,-99.976,-80.505
-0.371,2.206,-1.720,-262.817,-52.856,65.247
-0.227,2.309,-1.448,-377.380,16.602,198.303
0.074,2.151,-1.310,-363.708,75.378,260.254
0.025,2.070,-0.588,-270.752,91.675,256.531
0.187,1.444,-0.539,-151.917,100.647,179.077
-0.011,0.827,-0.307,-11.841,78.003,109.985
-0.080,0.402,-0.244,75.989,60.669,59.753
-0.151,0.292,-0.161,96.985,38.635,30.334
-0.212,0.442,0.021,86.548,27.588,14.893
-0.174,0.542,0.246,75.745,32.227,1.648
-0.131,0.632,0.286,56.580,42.236,-10.803
-0.051,0.641,0.256,41.504,45.532,-22.156
-0.040,0.708,0.287,29.358,37.292,-30.334
-0.018,0.794,0.250,20.203,24.536,-37.292
-0.031,0.880,0.178,17.029,8.484,-42.236
-0.028,0.968,0.091,19.287,-6.592,-43.945
-0.020,1.045,-0.004,24.048,-19.226,-42.480
-0.028,1.101,-0.108,27.405,-28.809,-38.269
-0.042,1.117,-0.210,29.419,-33.020,-31.860
-0.056,1.113,-0.284,29.419,-31.067,-22.949
-0.067,1.113,-0.311,25.024,-23.376,-12.146
-0.088,1.122,-0.316,15.564,-11.902,-1.770
-0.074,1.095,-0.298,8.545,0.122,6.409
-0.071,1.058,-0.247,5.005,9.888,11.841
-0.077,1.053,-0.182,4.272,16.541,13.977
-0.065,1.038,-0.131,8.484,21.118,12.512
-0.063,1.006,-0.095,17.334,22.583,7.812
-0.073,0.972,-0.067,26.794,20.874,2.136
-0.066,0.961,-0.052,31.616,16.479,-2.441
-0.077,0.957,-0.035,32.410,10.864,-5.066
-0.080,0.929,-0.037,31.128,5.615,-6.042
-0.084,0.896,-0.053,26.733,1.221,-4.822
-0.091,0.881,-0.067,19.531,-2.441,-2.075
-0.097,0.872,-0.086,11.047,-4.822,1.892
-0.116,0.882,-0.116,2.625,-6.104,6.226
-0.129,0.898,-0.149,-3.113,-5.981,9.094
-0.133,0.922,-0.179,-5.066,-5.371,9.460
-0.137,0.951,-0.196,-4.578,-4.822,7.690
-0.139,0.960,-0.201,-1.831,-3.052,4.822
-0.140,0.960,-0.207,1.282,-0.488,2.258
-0.143,0.957,-0.208,2.380,1.892,0.732
-0.152,0.959,-0.198,2.319,3.723,-0.183
-0.152,0.971,-0.181,2.441,5.371,-0.671
-0.143,0.974,-0.166,2.625,6.653,-0.427
-0.135,0.973,-0.148,1.953,6.897,0.427
-0.117,0.950,-0.147,0.854,6.409,1.648
-0.139,0.913,-0.130,-0.305,4.211,3.540
-0.148,0.902,-0.125,-3.174,4.272,6.653
-0.144,0.899,-0.125,-7.507,4.883,9.644
-0.143,0.895,-0.126,-10.986,5.188,10.742
-0.147,0.898,-0.127,-13.184,4.517,10.071
-0.169,0.892,-0.128,-14.099,3.418,8.606
-0.178,0.899,-0.131,-14.038,3.296,7.141
-0.181,0.922,-0.123,-12.451,3.174,5.920
-0.178,0.943,-0.117,-9.033,2.991,3.967
-0.168,0.951,-0.118,-3.906,2.747,0.977
-0.158,0.948,-0.115,0.854,1.892,-2.258
-0.158,0.936,-0.104,4.089,0.732,-4.028
-0.150,0.949,-0.098,4.944,0.366,-4.150
-0.133,0.964,-0.093,4.883,0.183,-3.906
-0.122,0.965,-0.096,5.310,-0.244,-3.662
-0.124,0.962,-0.100,5.005,-0.610,-2.563
-0.129,0.960,-0.101,3.723,-1.038,-0.366
-0.134,0.956,-0.107,1.587,-1.282,1.892
-0.144,0.950,-0.108,-0.183,-1.465,3.906
-0.149,0.947,-0.117,-2.380,-1.404,4.822
-0.147,0.944,-0.127,-4.944,-1.465,5.066
-0.153,0.951,-0.130,-7.080,-2.319,4.639
-0.149,0.950,-0.128,-8.240,-3.357,3.784
-0.159,0.956,-0.143,-7.751,-4.333,3.113
-0.160,0.950,-0.153,-5.859,-5.005,2.258
-0.167,0.959,-0.162,-4.456,-5.005,2.014
-0.165,0.977,-0.169,-3.174,-4.333,1.831
-0.165,0.984,-0.177,-1.160,-3.418,1.282
-0.166,0.978,-0.189,1.282,-2.869,0.854
-0.165,0.981,-0.189,3.418,-2.380,0.427
-0.163,0.976,-0.193,4.639,-2.075,-0.122
-0.160,0.969,-0.191,5.432,-2.014,-0.671
-0.166,0.965,-0.195,5.798,-2.014,-1.038
-0.168,0.968,-0.188,5.554,-2.136,-0.854
-0.168,0.974,-0.188,5.005,-1.953,-0.854
-0.165,0.974,-0.193,4.883,-1.343,-1.038
-0.167,0.964,-0.199,5.127,-0.854,-0.854
-0.171,0.962,-0.199,4.761,-0.427,-0.916
-0.180,0.969,-0.201,4.639,-0.061,-1.038
-0.180,0.975,-0.204,5.615,0.427,-1.709
-0.190,0.968,-0.197,7.935,1.404,-2.380
-0.192,0.969,-0.195,9.033,3.357,-2.319
-0.178,0.974,-0.192,8.545,5.310,-2.136
-0.173,0.982,-0.186,8.850,6.409,-2.441
-0.163,0.986,-0.185,9.949,6.714,-3.113
-0.165,0.981,-0.186,11.780,6.531,-3.540
-0.158,0.967,-0.183,12.939,6.592,-3.357
-0.157,0.955,-0.169,12.878,6.470,-2.319
-0.149,0.949,-0.160,11.841,6.653,-1.099
-0.136,0.938,-0.147,11.414,6.775,-0.549
-0.132,0.917,-0.133,11.841,5.981,-0.610
-0.132,0.894,-0.118,12.085,5.432,-0.549
-0.140,0.877,-0.099,10.925,5.310,0.183
-0.138,0.879,-0.087,7.874,5.920,1.099
-0.141,0.880,-0.069,4.150,6.714,0.916
-0.139,0.882,-0.065,0.488,6.409,-0.183
-0.136,0.891,-0.066,-2.014,5.676,-1.221
-0.141,0.905,-0.068,-3.113,4.089,-1.892
-0.136,0.923,-0.072,-3.845,2.686,-2.258
-0.133,0.939,-0.083,-4.395,1.526,-2.136
-0.133,0.948,-0.093,-4.517,0.671,-1.770
-0.128,0.955,-0.102,-4.700,-0.244,-1.343
-0.136,0.953,-0.107,-4.456,-0.977,-0.549
-0.145,0.954,-0.104,-3.906,-1.343,0.305

3.550,0.904,0.751,-1.160,9.277,-188.049
4.000,1.858,0.728,105.591,14.709,-193.970
4.000,2.901,0.677,231.812,17.090,-223.267
3.656,3.228,0.469,346.008,3.784,-266.479
2.482,2.732,0.206,414.124,-16.846,-286.438
1.747,1.759,-0.289,331.055,-43.274,-263.672
1.208,2.070,-0.826,121.582,-91.919,-173.767
0.528,2.650,-0.948,-122.986,-120.422,-62.622
0.214,2.531,-1.139,-303.467,-101.990,27.466
0.072,2.254,-1.376,-393.311,-54.199,104.187
-0.288,2.303,-0.891,-367.432,-12.024,170.532
-0.054,1.932,-0.842,-267.090,35.645,178.772
0.016,1.311,-0.468,-119.995,58.716,144.714
-0.061,0.637,-0.317,17.456,53.955,98.572
-0.063,0.256,-0.173,98.572,47.424,57.007
-0.090,0.162,0.076,126.648,40.527,26.917
-0.232,0.232,0.348,129.333,42.847,2.869
-0.178,0.187,0.453,115.234,54.382,-23.254
-0.020,0.293,0.498,84.045,57.861,-46.387
0.085,0.523,0.527,52.185,47.485,-66.467
0.145,0.699,0.434,26.611,30.396,-83.252
0.125,0.879,0.285,5.493,8.728,-89.783
0.087,1.063,0.099,-10.010,-8.240,-83.679
0.070,1.219,-0.093,-24.353,-20.142,-66.772
0.054,1.341,-0.245,-33.875,-26.550,-45.044
0.019,1.401,-0.340,-32.715,-26.184,-23.071
-0.011,1.399,-0.380,-23.743,-18.799,-4.578
-0.033,1.344,-0.362,-10.925,-5.798,9.644
-0.046,1.241,-0.287,3.052,7.812,18.616
-0.045,1.140,-0.189,15.747,20.813,21.851
-0.028,1.039,-0.072,27.161,31.860,20.569
-0.002,0.956,0.016,35.522,39.001,14.709
0.035,0.888,0.092,40.405,40.894,5.981
-0.029,0.861,0.180,41.809,36.682,-1.953
0.008,0.862,0.197,36.011,31.555,-6.653
0.005,0.876,0.182,26.978,25.391,-8.545
0.010,0.912,0.150,15.625,17.517,-7.751
0.000,0.937,0.106,3.723,9.827,-5.798
-0.013,0.954,0.054,-5.798,3.662,-3.357
-0.043,0.952,-0.002,-13.123,-0.183,0.000
-0.068,0.969,-0.048,-18.860,-1.709,3.784
-0.071,1.003,-0.089,-22.034,-0.427,5.615
-0.070,1.011,-0.110,-19.714,1.160,4.639
-0.084,1.010,-0.117,-12.756,2.930,1.709
-0.073,1.014,-0.130,-4.150,6.165,-1.221
-0.078,1.008,-0.137,5.676,9.460,-3.723
-0.081,1.001,-0.141,12.878,13.000,-5.371
-0.067,1.002,-0.134,16.052,15.503,-6.226
-0.066,1.003,-0.112,17.212,16.724,-6.226
-0.072,1.002,-0.089,17.517,16.968,-5.676
-0.069,0.988,-0.074,16.663,15.808,-4.517
-0.074,0.978,-0.047,14.587,14.832,-2.747
-0.076,0.965,-0.042,11.536,13.489,-0.122
-0.075,0.967,-0.029,6.775,11.658,3.174
-0.070,0.966,-0.017,2.075,10.498,5.676
-0.048,0.949,-0.024,-1.648,9.216,7.019
-0.095,0.940,-0.020,-4.578,7.507,7.812
-0.074,0.936,-0.027,-7.141,6.714,7.812
-0.080,0.935,-0.033,-7.507,4.700,6.470
-0.083,0.942,-0.039,-6.897,2.869,4.089
-0.081,0.943,-0.048,-5.371,1.892,1.343
-0.086,0.940,-0.043,-4.150,1.892,-0.793
-0.090,0.941,-0.044,-3.845,2.747,-1.709
-0.081,0.962,-0.040,-4.150,4.517,-1.648
-0.079,0.975,-0.039,-3.723,5.798,-2.014
-0.072,1.002,-0.037,-2.197,6.165,-2.808
-0.062,1.020,-0.038,0.549,5.615,-3.357
-0.056,1.020,-0.043,4.456,4.517,-3.052
-0.059,1.005,-0.058,7.568,3.479,-1.526
-0.058,1.002,-0.071,6.714,2.502,1.099
-0.067,0.998,-0.073,3.723,1.648,3.601
-0.081,0.998,-0.068,0.061,1.648,5.981
-0.082,0.993,-0.057,-3.418,2.258,7.935
-0.083,0.974,-0.057,-5.066,3.296,8.301
-0.095,0.965,-0.039,-5.676,3.601,8.545
-0.097,0.966,-0.029,-5.920,4.211,9.033
-0.086,0.969,-0.020,-5.432,5.310,8.606
-0.073,0.965,-0.029,-3.174,5.005,7.202
-0.072,0.956,-0.038,-0.305,3.540,5.676
-0.082,0.965,-0.038,2.258,2.075,4.822
-0.079,0.976,-0.054,4.883,1.038,4.272
-0.078,0.975,-0.068,7.690,0.000,3.418
-0.077,0.958,-0.088,9.033,-0.366,2.625
-0.082,0.948,-0.096,7.446,-0.122,2.563
-0.081,0.946,-0.088,4.089,0.610,3.418
-0.081,0.959,-0.085,0.122,2.563,4.272
-0.082,0.961,-0.081,-2.197,4.761,5.066
-0.087,0.963,-0.078,-3.418,6.287,5.676
-0.073,0.970,-0.071,-4.456,7.507,5.920
-0.082,0.969,-0.061,-5.066,8.057,5.859
-0.078,0.977,-0.062,-5.310,8.423,5.798
-0.093,0.992,-0.055,-4.333,7.996,5.981
-0.049,1.001,-0.074,-2.075,7.751,5.554
-0.132,0.995,-0.036,0.854,5.920,5.554
-0.080,0.978,-0.060,1.953,7.202,5.249
-0.101,0.963,-0.037,3.357,6.775,5.188
-0.100,0.957,-0.028,4.456,5.737,4.761
-0.097,0.950,-0.021,6.287,4.761,4.150
-0.093,0.939,-0.018,7.507,4.883,3.662
-0.089,0.935,-0.020,6.836,5.737,3.601
-0.076,0.929,-0.036,4.700,6.775,3.601
-0.075,0.925,-0.041,1.526,6.470,3.479
-0.082,0.925,-0.048,-2.136,6.042,2.747
-0.092,0.936,-0.049,-5.371,5.310,2.380
-0.094,0.962,-0.043,-7.202,5.432,2.014
-0.089,0.977,-0.039,-6.104,6.042,1.221
-0.079,0.977,-0.043,-2.625,6.287,-0.366
-0.072,0.975,-0.047,1.282,5.066,-2.075
-0.075,0.973,-0.048,5.127,2.991,-3.601
-0.090,0.965,-0.043,8.606,0.305,-4.700
-0.086,0.962,-0.035,10.681,-0.977,-5.615
-0.094,0.960,-0.030,11.475,-0.793,-5.432
-0.084,0.961,-0.029,10.376,0.549,-4.578
-0.078,0.963,-0.027,8.423,2.014,-3.784
-0.075,0.963,-0.032,5.981,2.808,-3.052
-0.072,0.958,-0.037,3.662,3.052,-2.014
-0.073,0.967,-0.044,1.160,3.113,-0.671
-0.075,0.973,-0.048,-1.038,3.540,0.427
-0.075,0.976,-0.056,-2.686,4.517,0.916

3.167,0.640,0.393,-154.785,-30.273,-162.048
3.549,1.594,0.339,-69.885,-89.539,-125.549
3.612,2.593,0.261,56.091,-119.690,-122.375
3.352,3.283,0.172,216.370,-129.333,-148.499
2.582,3.221,0.059,360.413,-122.437,-189.636
1.669,2.317,-0.154,417.542,-99.304,-212.708
1.019,1.482,-0.602,315.308,-81.116,-184.448
0.812,1.312,-1.387,66.467,-89.966,-112.610
0.278,2.315,-0.930,-169.617,-142.273,-0.916
0.093,2.735,-1.197,-333.191,-135.193,47.058
-0.064,2.358,-1.177,-383.362,-92.468,78.674
-0.333,1.910,-1.202,-348.694,-54.688,115.967
-0.359,1.734,-1.126,-289.246,-9.460,139.587
-0.351,1.472,-0.893,-202.026,27.161,138.672
-0.232,1.083,-0.691,-106.628,55.359,112.244
-0.168,0.674,-0.529,-26.978,66.956,80.688
-0.160,0.464,-0.339,27.588,64.758,53.711
-0.180,0.428,-0.047,57.922,60.242,29.236
-0.234,0.580,0.209,78.064,64.087,5.981
-0.145,0.577,0.308,99.915,70.801,-21.851
-0.047,0.487,0.308,114.502,66.467,-46.936
0.009,0.594,0.301,112.122,49.011,-61.584
0.004,0.744,0.268,98.877,24.597,-71.045
-0.014,0.881,0.183,79.224,0.122,-76.965
-0.036,1.003,0.089,55.359,-18.433,-76.294
-0.072,1.091,-0.017,30.273,-27.283,-66.345
-0.062,1.153,-0.148,2.014,-28.625,-48.218
-0.081,1.167,-0.255,-20.874,-25.452,-25.208
-0.107,1.175,-0.333,-33.813,-20.203,-1.709
-0.116,1.206,-0.353,-39.185,-13.306,13.245
-0.150,1.180,-0.328,-30.884,-5.493,18.616
-0.154,1.077,-0.286,-14.221,5.127,16.663
-0.155,1.007,-0.225,4.211,13.794,14.099
-0.129,0.954,-0.164,20.569,22.644,9.399
-0.116,0.915,-0.100,34.424,28.015,2.380
-0.118,0.862,-0.037,41.321,30.334,-5.005
-0.109,0.834,0.003,40.466,30.212,-11.047
-0.107,0.826,0.024,34.912,27.161,-15.381
-0.111,0.850,0.023,26.978,22.766,-17.273
-0.110,0.877,-0.001,17.517,17.700,-16.602
-0.110,0.893,-0.027,7.629,11.719,-14.160
-0.132,0.915,-0.051,-1.892,6.531,-9.766
-0.138,0.942,-0.086,-9.155,3.235,-4.883
-0.142,0.949,-0.124,-13.367,1.282,-0.793
-0.158,0.958,-0.151,-15.869,0.305,2.502
-0.172,0.973,-0.176,-17.639,1.404,4.639
-0.177,0.979,-0.198,-16.785,4.089,5.188
-0.177,0.970,-0.209,-13.733,7.324,4.517
-0.169,0.958,-0.203,-10.376,10.925,3.296
-0.172,0.942,-0.189,-8.118,14.099,2.197
-0.162,0.927,-0.178,-6.348,16.724,0.977
-0.156,0.923,-0.157,-4.944,17.517,-0.488
-0.150,0.940,-0.139,-3.418,15.991,-2.319
-0.148,0.943,-0.127,-0.854,13.245,-4.150
-0.148,0.932,-0.120,2.686,10.376,-5.737
-0.146,0.924,-0.124,5.615,7.202,-6.958
-0.145,0.907,-0.130,7.751,4.028,-7.751
-0.149,0.908,-0.134,9.033,1.648,-7.996
-0.154,0.921,-0.139,9.033,1.465,-7.446
-0.152,0.923,-0.151,7.751,2.869,-6.653
-0.149,0.930,-0.154,5.554,3.967,-5.676
-0.148,0.946,-0.153,2.808,4.944,-4.395
-0.154,0.950,-0.148,-0.427,5.859,-2.930
-0.157,0.972,-0.142,-2.808,6.958,-1.526
-0.156,0.990,-0.133,-3.601,7.874,-1.099
-0.145,0.995,-0.137,-2.319,8.423,-1.953
-0.142,0.980,-0.129,-0.488,7.996,-3.113
-0.142,0.976,-0.122,-0.244,7.324,-3.296
-0.135,0.986,-0.115,-1.282,6.531,-2.869
-0.132,0.979,-0.113,-2.136,5.432,-3.235
-0.137,0.970,-0.110,-2.930,4.028,-3.418
-0.141,0.972,-0.105,-3.052,2.563,-2.930
-0.142,0.978,-0.105,-1.709,1.404,-1.892
-0.136,0.966,-0.113,0.244,0.305,-1.221
-0.161,0.948,-0.132,1.770,-0.610,-0.488
-0.155,0.969,-0.121,0.244,0.366,0.488
-0.161,0.981,-0.131,-0.793,1.282,1.221
-0.163,0.986,-0.136,-0.916,2.625,1.587
-0.153,0.988,-0.146,-0.732,3.784,2.136
-0.157,0.987,-0.146,-0.061,3.662,2.869
-0.153,0.982,-0.149,0.977,3.418,3.357
-0.148,0.968,-0.147,2.136,2.441,3.235
-0.147,0.952,-0.150,3.113,1.343,2.869
-0.145,0.934,-0.148,3.235,0.366,2.502
-0.141,0.935,-0.140,1.648,0.061,1.831
-0.139,0.941,-0.138,-0.183,-0.183,0.916
-0.140,0.943,-0.135,-0.671,-0.793,0.122
-0.136,0.945,-0.139,-0.061,-1.831,-0.671
-0.132,0.935,-0.148,0.671,-3.113,-1.221
-0.141,0.937,-0.150,0.977,-4.028,-1.282
-0.142,0.944,-0.159,-0.183,-3.540,-0.549
-0.150,0.956,-0.154,-1.587,-2.930,0.427
-0.155,0.970,-0.155,-2.319,-2.197,0.793
-0.160,0.984,-0.151,-1.221,-1.709,0.488
-0.161,0.979,-0.156,1.831,-1.587,-0.427
-0.161,0.961,-0.160,5.371,-1.465,-1.465
-0.167,0.960,-0.170,7.385,-1.282,-1.770
-0.162,0.979,-0.179,6.348,0.000,-1.892
-0.152,0.990,-0.174,4.089,1.465,-2.136
-0.152,1.000,-0.161,2.319,2.563,-1.770
-0.147,0.999,-0.161,1.465,3.235,-0.488
-0.144,0.981,-0.158,1.953,3.845,0.854
-0.145,0.957,-0.158,2.380,2.930,1.587
-0.156,0.942,-0.154,2.380,1.404,2.197
-0.156,0.939,-0.156,1.587,0.610,1.892
-0.158,0.940,-0.149,2.258,0.000,1.099
-0.155,0.953,-0.144,3.235,0.183,0.549
-0.152,0.965,-0.150,3.235,1.038,0.793
-0.149,0.963,-0.154,3.906,1.587,1.160
-0.155,0.960,-0.155,4.395,1.709,1.831
-0.152,0.961,-0.153,4.578,1.770,2.319
-0.152,0.963,-0.148,3.906,1.465,2.380
-0.152,0.975,-0.149,3.174,2.014,2.625
-0.147,0.967,-0.153,2.930,3.479,2.991
-0.150,0.962,-0.158,3.601,4.761,3.357
-0.149,0.959,-0.156,3.540,6.592,3.723
-0.145,0.966,-0.157,1.160,6.958,4.639
-0.152,0.975,-0.159,0.854,6.653,5.188
-0.149,0.973,-0.165,1.709,6.226,4.761

-1.588,-0.587,0.190,-16.296,-31.067,-86.853
-1.603,-0.614,0.217,-25.330,-29.358,-102.112
-1.608,-0.592,0.194,-36.438,-28.503,-120.667
-1.617,-0.566,0.193,-46.021,-27.283,-141.357
-1.615,-0.512,0.198,-54.993,-24.719,-162.659
-1.610,-0.486,0.187,-61.035,-20.142,-182.312
-1.572,-0.444,0.175,-65.491,-14.893,-198.425
-1.523,-0.408,0.147,-68.481,-9.705,-210.388
-1.462,-0.382,0.132,-71.960,-5.615,-219.666
-1.393,-0.366,0.136,-77.026,-2.502,-225.830
-1.298,-0.317,0.124,-88.562,-0.122,-232.117
-1.160,-0.254,0.128,-100.708,0.305,-239.807
-1.057,-0.226,0.149,-104.797,-3.113,-247.437
-0.933,-0.187,0.140,-108.459,-6.531,-255.432
-0.760,-0.146,0.127,-106.323,-11.353,-259.949
-0.571,-0.120,0.103,-95.337,-19.165,-260.315
-0.312,-0.125,0.076,-84.412,-27.161,-258.118
0.041,-0.136,0.062,-77.759,-35.645,-252.625
0.428,-0.203,0.095,-76.294,-46.570,-242.432
1.002,-0.242,0.130,-87.463,-59.326,-228.333
1.788,-0.090,0.152,-95.825,-78.918,-204.895
2.586,0.307,0.235,-81.116,-100.525,-174.011
3.149,1.337,0.276,-28.381,-107.605,-149.231
3.568,2.509,0.238,74.890,-93.994,-153.992
3.417,3.011,0.250,209.900,-72.998,-190.735
2.556,3.198,0.184,325.256,-41.321,-229.370
1.782,2.568,-0.003,356.506,-5.249,-241.943
1.202,1.917,-0.296,265.015,13.550,-211.365
0.638,1.754,-0.548,87.158,-1.587,-137.878
0.435,1.846,-0.935,-120.239,-25.818,-55.176
-0.145,2.429,-0.382,-247.314,-66.528,36.499
-0.108,2.436,-0.621,-301.331,-56.702,65.308
-0.227,2.168,-0.620,-272.400,-33.081,78.796
-0.394,1.892,-0.597,-196.289,-13.245,87.158
-0.211,1.528,-0.574,-122.803,11.292,85.144
-0.074,1.131,-0.528,-64.148,29.663,77.271
-0.080,0.902,-0.416,-23.132,37.781,71.594
0.019,0.725,-0.279,-7.690,36.865,66.162
-0.043,0.763,-0.039,-2.380,36.194,55.603
0.023,0.685,0.108,9.644,44.800,37.231
0.070,0.604,0.166,21.667,49.194,16.724
0.126,0.605,0.221,29.724,43.457,-0.671
0.094,0.560,0.249,35.461,31.860,-13.550
0.043,0.544,0.178,29.419,17.639,-21.851
0.005,0.602,0.085,12.329,1.099,-25.452
-0.027,0.704,0.025,-8.057,-14.526,-26.794
-0.058,0.786,-0.050,-28.076,-22.888,-26.367
-0.106,0.825,-0.138,-44.678,-23.682,-22.461
-0.150,0.894,-0.196,-55.664,-19.043,-14.893
-0.168,0.973,-0.218,-56.702,-11.108,-7.507
-0.157,0.994,-0.215,-45.776,-2.502,-3.723
-0.142,0.994,-0.192,-26.550,5.859,-3.418
-0.127,0.962,-0.155,-5.737,12.329,-5.432
-0.115,0.931,-0.110,11.353,16.907,-8.789
-0.107,0.911,-0.052,22.034,18.982,-12.268
-0.125,0.883,-0.002,28.320,18.372,-14.587
-0.133,0.892,0.026,31.982,15.503,-15.137
-0.145,0.873,0.032,34.546,9.644,-15.869
-0.160,0.890,0.026,33.630,2.991,-16.663
-0.168,0.914,0.007,27.954,-1.465,-16.479
-0.177,0.924,-0.020,19.958,-3.540,-14.587
-0.175,0.928,-0.044,10.071,-4.211,-11.292
-0.173,0.934,-0.065,0.549,-5.249,-7.812
-0.175,0.950,-0.076,-5.676,-6.531,-5.249
-0.174,0.970,-0.089,-7.324,-7.507,-4.089
-0.174,0.962,-0.115,-5.249,-7.690,-3.723
-0.190,0.974,-0.123,-1.038,-7.812,-3.235
-0.190,0.979,-0.145,3.296,-6.653,-3.540
-0.201,0.973,-0.139,6.897,-5.554,-4.211
-0.211,0.964,-0.131,8.057,-3.418,-4.883
-0.208,0.965,-0.132,6.897,-1.038,-5.676
-0.198,0.982,-0.129,4.944,0.488,-6.531
-0.189,0.997,-0.124,3.723,1.099,-7.568
-0.189,1.003,-0.121,2.747,1.465,-8.240
-0.196,1.006,-0.119,2.319,1.282,-7.568
-0.197,1.006,-0.125,2.441,0.977,-6.470
-0.196,1.008,-0.131,2.380,0.610,-5.554
-0.192,1.008,-0.130,2.380,0.427,-4.944
-0.191,1.004,-0.130,2.930,0.854,-4.822
-0.183,0.994,-0.131,3.662,1.770,-4.761
-0.192,0.987,-0.130,4.028,2.808,-4.517
-0.187,0.998,-0.120,2.930,3.784,-3.967
-0.187,0.984,-0.105,1.465,4.822,-3.296
-0.184,0.993,-0.096,-0.061,5.432,-2.197
-0.180,0.990,-0.086,0.061,5.188,-1.587
-0.180,0.991,-0.081,1.465,4.639,-1.709
-0.174,0.990,-0.079,3.052,3.723,-1.892
-0.176,0.979,-0.082,4.089,3.052,-2.136
-0.189,0.980,-0.081,3.784,3.296,-1.831
-0.182,0.995,-0.084,2.441,4.028,-0.793
-0.182,1.000,-0.085,1.892,4.333,-0.488
-0.174,1.005,-0.088,2.563,4.150,-1.038
-0.170,1.000,-0.090,4.028,3.357,-1.648
-0.173,0.983,-0.088,5.005,2.869,-1.587
-0.172,0.967,-0.072,4.822,3.296,-0.366
-0.165,0.970,-0.065,2.686,4.150,0.977
-0.156,0.952,-0.060,1.282,4.639,1.892
-0.163,0.934,-0.056,-0.061,4.272,2.625
-0.158,0.924,-0.063,-1.892,3.662,3.601
-0.157,0.918,-0.074,-3.479,2.502,4.272
-0.167,0.911,-0.091,-4.578,1.160,4.150
-0.172,0.930,-0.105,-5.615,-0.122,4.028
-0.170,0.947,-0.115,-4.944,-1.221,2.869
-0.168,0.945,-0.125,-1.465,-2.258,1.099
-0.177,0.943,-0.128,2.258,-2.319,0.244
-0.181,0.946,-0.126,4.089,-1.526,0.122
-0.176,0.951,-0.122,4.395,0.122,-0.061
-0.174,0.964,-0.118,4.395,1.831,-0.427
-0.166,0.970,-0.115,4.761,2.869,-0.977
-0.161,0.960,-0.110,5.371,2.991,-1.343
-0.160,0.949,-0.102,5.615,2.930,-1.160
-0.167,0.943,-0.086,3.967,3.601,0.061
-0.175,0.946,-0.084,0.366,4.822,1.953
-0.163,0.962,-0.080,-2.319,4.761,3.601
-0.156,0.972,-0.093,-3.052,2.808,3.296
-0.158,0.975,-0.105,-2.136,0.366,2.197
-0.172,0.965,-0.111,-0.671,-1.099,1.526
-0.182,0.956,-0.111,0.793,-1.343,1.404
-0.184,0.948,-0.111,2.563,-0.549,1.343

-1.502,-0.802,0.337,-23.315,-69.336,-87.830
-1.548,-0.841,0.299,-31.128,-67.200,-99.304
-1.572,-0.862,0.248,-44.006,-65.796,-112.976
-1.571,-0.862,0.204,-58.899,-65.430,-127.930
-1.545,-0.858,0.165,-72.449,-65.674,-143.616
-1.488,-0.874,0.126,-83.984,-67.261,-158.875
-1.436,-0.836,0.070,-92.773,-72.815,-171.631
-1.461,-0.819,0.088,-98.755,-79.041,-184.570
-1.333,-0.786,-0.008,-104.553,-76.599,-201.050
-1.253,-0.735,0.000,-102.844,-80.505,-215.881
-1.112,-0.670,-0.017,-98.267,-82.947,-230.957
-0.976,-0.595,-0.022,-88.562,-84.412,-246.460
-0.821,-0.541,-0.055,-71.777,-83.557,-263.489
-0.612,-0.502,-0.093,-52.551,-79.102,-281.555
-0.396,-0.481,-0.137,-32.532,-72.327,-298.096
-0.145,-0.474,-0.193,-20.630,-62.378,-312.866
0.178,-0.443,-0.177,-21.729,-49.622,-325.256
0.598,-0.393,-0.161,-41.626,-38.147,-335.571
1.122,-0.292,-0.116,-72.876,-34.912,-342.651
1.767,-0.241,-0.057,-95.886,-45.349,-338.806
2.496,0.058,0.015,-104.370,-64.636,-316.589
3.254,0.694,0.135,-88.074,-91.736,-285.583
3.770,1.728,0.311,-31.738,-112.610,-265.442
3.801,3.078,0.519,91.553,-110.840,-266.663
3.349,4.000,0.731,277.527,-79.712,-295.471
2.455,3.971,0.413,426.208,-31.616,-338.562
1.563,2.575,-0.314,437.927,-17.029,-343.079
1.000,2.332,-0.831,270.081,-53.162,-263.855
0.316,2.740,-1.093,23.193,-92.590,-122.253
-0.059,2.503,-0.979,-221.069,-100.769,10.071
-0.195,2.671,-1.002,-366.882,-72.510,140.442
-0.222,2.373,-0.957,-416.138,-36.072,221.619
-0.146,2.272,-0.669,-399.597,20.325,214.661
-0.140,1.850,-0.463,-294.128,52.612,174.683
-0.163,1.409,-0.428,-148.071,72.449,122.620
-0.040,0.968,-0.410,-14.099,76.599,70.618
-0.093,0.636,-0.338,61.096,58.716,36.743
-0.192,0.498,-0.163,75.745,33.691,29.053
-0.246,0.524,0.027,61.951,31.860,24.414
-0.204,0.575,0.227,43.640,43.823,18.494
-0.160,0.610,0.287,25.269,56.152,9.338
-0.095,0.586,0.279,13.855,59.570,-0.977
-0.080,0.592,0.280,9.827,52.307,-9.094
-0.103,0.617,0.264,8.057,38.025,-16.235
-0.132,0.687,0.208,7.751,20.630,-22.766
-0.155,0.758,0.156,10.986,4.700,-28.564
-0.155,0.823,0.096,17.761,-5.066,-33.508
-0.167,0.866,0.024,25.635,-8.179,-37.720
-0.144,0.912,-0.050,30.273,-7.690,-40.710
-0.123,0.959,-0.114,32.410,-5.310,-42.114
-0.116,0.988,-0.146,32.837,-1.648,-41.504
-0.120,1.021,-0.162,31.189,3.479,-38.025
-0.117,1.047,-0.157,29.419,9.155,-31.921
-0.103,1.069,-0.143,28.809,14.587,-24.536
-0.088,1.064,-0.111,29.297,18.188,-17.517
-0.095,1.035,-0.072,29.541,19.897,-11.780
-0.108,0.982,-0.031,28.503,20.752,-6.470
-0.108,0.961,-0.011,25.085,20.325,-2.014
-0.117,0.936,0.010,21.484,17.212,1.282
-0.120,0.913,0.020,18.494,13.062,2.808
-0.135,0.902,0.024,14.648,8.240,3.906
-0.156,0.883,0.016,11.780,2.747,3.723
-0.176,0.859,-0.004,10.498,-2.075,2.380
-0.179,0.842,-0.041,8.972,-5.310,1.160
-0.189,0.845,-0.077,6.287,-7.446,-0.061
-0.195,0.864,-0.095,2.441,-7.812,-1.221
-0.201,0.898,-0.115,-1.160,-6.775,-2.747
-0.196,0.919,-0.132,-3.174,-4.028,-4.578
-0.198,0.927,-0.147,-2.991,-1.221,-6.165
-0.205,0.943,-0.163,-2.625,1.709,-6.714
-0.209,0.981,-0.174,-2.441,3.723,-6.958
-0.201,0.999,-0.174,-1.038,5.310,-7.324
-0.201,1.002,-0.163,1.282,6.226,-7.324
-0.205,0.990,-0.148,4.028,6.348,-5.737
-0.212,0.966,-0.139,6.348,5.615,-4.028
-0.208,0.956,-0.127,8.606,4.211,-2.441
-0.211,0.945,-0.115,9.399,3.235,-1.404
-0.208,0.933,-0.105,8.789,3.174,-1.099
-0.201,0.911,-0.103,7.080,4.150,-1.099
-0.200,0.897,-0.094,4.333,5.005,-0.122
-0.202,0.883,-0.094,0.244,5.676,1.526
-0.199,0.871,-0.094,-5.676,6.348,3.052
-0.202,0.880,-0.095,-12.512,6.714,3.906
-0.207,0.901,-0.100,-18.433,6.775,3.418
-0.202,0.926,-0.108,-21.545,6.836,1.892
-0.213,0.933,-0.108,-20.935,6.531,0.000
-0.225,0.940,-0.115,-17.639,6.775,-1.160
-0.229,0.953,-0.120,-13.123,7.874,-1.404
-0.214,0.968,-0.119,-9.033,9.033,-1.465
-0.196,0.987,-0.117,-6.287,9.094,-1.282
-0.185,0.996,-0.114,-4.272,7.690,-1.343
-0.180,0.993,-0.108,-2.380,6.287,-0.977
-0.195,0.974,-0.107,-1.282,5.737,0.122
-0.229,0.953,-0.100,-0.488,5.981,2.075
-0.226,0.932,-0.091,0.977,6.714,3.601
-0.208,0.911,-0.100,4.089,7.019,3.662
-0.199,0.899,-0.113,7.812,6.104,1.953
-0.198,0.896,-0.108,10.010,4.700,-0.854
-0.205,0.914,-0.100,9.460,3.479,-3.418
-0.201,0.931,-0.106,7.812,3.845,-4.700
-0.195,0.938,-0.111,7.507,4.517,-5.127
-0.188,0.939,-0.124,7.690,4.822,-4.822
-0.191,0.906,-0.139,6.897,5.188,-4.395
-0.209,0.899,-0.133,3.052,5.371,-3.418
-0.196,0.937,-0.124,-2.197,6.775,-2.441
-0.188,0.965,-0.122,-4.272,6.897,-2.380
-0.179,0.971,-0.125,-3.357,6.836,-3.662
-0.181,0.957,-0.132,-2.319,6.592,-4.639
-0.180,0.942,-0.138,-3.540,6.653,-4.883
-0.187,0.954,-0.130,-6.714,7.263,-4.333
-0.183,0.984,-0.120,-9.277,7.751,-3.418
-0.183,0.998,-0.121,-9.155,7.812,-2.808
-0.181,0.998,-0.122,-7.263,7.263,-2.014
-0.177,0.988,-0.132,-5.432,7.019,-1.404
-0.181,0.965,-0.139,-4.150,6.775,-0.732
-0.190,0.963,-0.136,-4.517,7.080,0.916
-0.192,0.974,-0.130,-5.920,6.836,2.930
-0.190,0.984,-0.119,-6.348,5.859,3.906
-0.187,0.981,-0.113,-4.639,4.517,3.540

3.551,1.528,0.430,28.992,26.184,-230.103
3.527,2.306,0.562,66.223,13.672,-215.942
3.318,2.866,0.531,124.512,-4.211,-204.285
2.580,2.946,0.424,196.228,-25.452,-193.787
1.851,2.412,0.243,241.455,-50.354,-173.218
1.310,1.789,-0.100,200.317,-79.895,-133.728
0.788,1.540,-0.435,74.463,-119.446,-74.829
0.330,1.607,-0.635,-85.205,-144.714,-16.296
0.063,1.919,-0.747,-212.585,-136.475,30.762
0.086,2.052,-0.950,-285.156,-103.210,45.349
-0.307,1.992,-0.809,-287.720,-76.233,47.424
-0.322,1.850,-0.919,-260.071,-32.349,40.344
-0.361,1.755,-0.813,-214.172,3.540,40.771
-0.247,1.596,-0.747,-151.611,28.687,42.419
-0.219,1.325,-0.550,-88.989,41.443,40.039
-0.219,1.055,-0.424,-47.852,49.194,38.086
-0.200,0.878,-0.271,-30.273,58.472,34.851
-0.179,0.771,-0.103,-17.639,62.744,27.405
-0.156,0.771,0.096,-2.441,63.965,16.052
-0.117,0.707,0.172,19.958,59.998,-0.854
-0.070,0.606,0.207,42.175,48.157,-16.663
-0.036,0.600,0.223,53.711,31.738,-27.954
-0.043,0.685,0.197,51.819,14.954,-36.255
-0.056,0.760,0.102,44.067,1.709,-43.152
-0.071,0.851,-0.026,31.677,-7.141,-48.096
-0.072,0.964,-0.125,20.081,-12.329,-49.927
-0.081,1.040,-0.219,11.230,-12.207,-50.232
-0.090,1.126,-0.303,5.615,-8.545,-44.861
-0.094,1.189,-0.358,3.723,-2.136,-35.278
-0.091,1.214,-0.383,4.211,6.042,-25.574
-0.095,1.206,-0.366,11.536,14.954,-14.648
-0.105,1.161,-0.308,23.315,22.644,-5.554
-0.117,1.093,-0.210,35.645,30.273,-0.549
-0.122,1.034,-0.134,44.800,36.194,1.770
-0.081,0.988,-0.063,50.537,38.757,0.793
-0.096,0.915,0.001,54.932,37.048,-2.014
-0.064,0.877,0.031,53.833,31.311,-3.845
-0.063,0.843,0.027,48.645,22.339,-4.578
-0.106,0.823,0.022,37.720,13.428,-4.639
-0.112,0.847,-0.008,21.423,6.409,-2.991
-0.134,0.886,-0.045,4.456,1.892,-0.549
-0.154,0.924,-0.091,-8.728,-1.160,1.404
-0.160,0.952,-0.136,-16.541,-2.441,2.747
-0.163,0.968,-0.180,-20.081,-1.953,2.625
-0.173,0.983,-0.206,-20.081,-1.343,3.418
-0.193,0.999,-0.225,-17.029,1.526,4.089
-0.182,1.003,-0.243,-10.681,5.554,3.845
-0.217,0.995,-0.242,-2.563,9.827,2.563
-0.191,0.980,-0.242,4.700,15.015,0.305
-0.175,0.954,-0.218,11.353,18.982,-2.502
-0.239,0.948,-0.165,17.090,19.043,-3.601
-0.201,0.957,-0.192,18.005,22.339,-5.249
-0.168,0.933,-0.159,17.456,26.794,-6.409
-0.162,0.926,-0.128,16.663,26.611,-5.554
-0.153,0.930,-0.108,13.489,24.414,-3.479
-0.142,0.914,-0.096,10.071,21.118,-1.221
-0.146,0.906,-0.084,5.127,17.029,0.916
-0.151,0.911,-0.084,-0.061,12.207,2.991
-0.174,0.909,-0.083,-3.418,7.568,4.578
-0.173,0.923,-0.095,-4.639,3.784,5.005
-0.176,0.924,-0.113,-2.930,1.221,4.150
-0.187,0.933,-0.120,0.427,-0.549,2.502
-0.191,0.943,-0.124,3.113,-0.793,0.793
-0.181,0.957,-0.129,4.639,-0.366,-0.916
-0.166,0.949,-0.135,6.042,1.099,-2.625
-0.161,0.941,-0.138,6.165,2.441,-3.479
-0.152,0.943,-0.138,4.150,3.479,-3.052
-0.144,0.937,-0.129,1.343,4.517,-2.441
-0.152,0.923,-0.117,-1.953,4.639,-1.465
-0.148,0.927,-0.109,-5.127,3.967,-0.427
-0.143,0.920,-0.101,-6.287,2.197,0.061
-0.149,0.915,-0.091,-5.066,0.305,0.061
-0.157,0.925,-0.087,-3.235,-1.038,0.916
-0.165,0.941,-0.095,-2.136,-2.258,2.075
-0.163,0.958,-0.112,-0.916,-3.418,2.747
-0.163,0.970,-0.135,0.732,-4.272,2.930
-0.171,0.972,-0.151,2.869,-4.761,2.991
-0.179,0.966,-0.161,3.662,-3.906,4.089
-0.182,0.956,-0.170,2.197,-1.709,5.188
-0.173,0.934,-0.165,-0.916,0.183,5.981
-0.174,0.927,-0.156,-4.639,1.282,6.592
-0.172,0.934,-0.146,-7.629,1.465,6.531
-0.166,0.954,-0.141,-8.118,0.977,5.493
-0.167,0.959,-0.146,-5.981,-0.061,3.662
-0.170,0.948,-0.146,-2.991,-0.854,2.441
-0.173,0.946,-0.150,-0.977,-0.427,1.343
-0.173,0.953,-0.152,0.305,-0.732,1.221
-0.179,0.955,-0.149,1.587,-0.549,1.465
-0.183,0.952,-0.155,2.441,0.488,2.136
-0.180,0.940,-0.163,2.136,1.526,2.686
-0.186,0.937,-0.158,1.099,1.892,3.235
-0.185,0.949,-0.151,-0.610,2.380,3.113
-0.182,0.951,-0.142,-1.038,2.747,2.197
-0.177,0.944,-0.136,-0.610,2.808,0.793
-0.176,0.938,-0.125,-0.366,2.441,0.061
-0.179,0.934,-0.118,-0.427,2.014,-0.122
-0.181,0.938,-0.115,-0.244,1.770,0.183
-0.173,0.940,-0.116,0.061,1.221,0.061
-0.176,0.931,-0.115,0.488,0.183,-0.305
-0.177,0.940,-0.117,0.427,-0.977,-0.061
-0.176,0.948,-0.123,0.244,-1.892,-0.244
-0.177,0.943,-0.129,0.732,-2.625,-0.549
-0.186,0.949,-0.136,1.404,-2.869,-0.549
-0.189,0.962,-0.143,1.587,-2.197,-0.305
-0.189,0.961,-0.147,2.747,-1.343,-0.488
-0.191,0.958,-0.149,3.601,-0.488,-0.977
-0.189,0.949,-0.143,3.540,0.122,-1.038
-0.176,0.950,-0.135,3.662,0.366,-1.160
-0.173,0.939,-0.128,4.028,-0.061,-1.953
-0.177,0.936,-0.120,4.150,-0.183,-2.686
-0.166,0.947,-0.125,3.906,0.366,-2.991
-0.162,0.950,-0.127,3.479,0.427,-2.991
-0.153,0.941,-0.129,3.296,0.610,-3.113
-0.145,0.940,-0.134,2.380,0.427,-2.930
-0.143,0.934,-0.145,1.587,-0.366,-2.747
-0.149,0.934,-0.147,0.793,-1.404,-2.563
-0.162,0.938,-0.155,0.427,-1.709,-2.197
-0.172,0.938,-0.156,0.854,-0.732,-2.136
-0.178,0.944,-0.159,0.305,0.671,-1.770

3.479,1.306,0.651,-28.809,2.075,-189.209
3.635,2.405,0.767,89.111,-17.639,-192.139
3.513,3.399,0.802,255.188,-20.386,-228.088
2.851,3.678,0.736,415.649,-10.681,-281.311
1.994,2.895,-0.043,473.816,-10.742,-311.035
1.672,3.085,-0.579,353.394,-52.246,-288.635
0.630,2.898,-1.126,167.053,-92.957,-204.407
0.018,2.261,-1.316,-78.979,-124.207,-70.984
-0.293,2.662,-1.383,-308.472,-124.451,116.150
-0.184,2.759,-1.161,-414.124,-45.654,247.559
-0.152,2.364,-0.929,-386.658,17.822,303.345
-0.056,1.569,-0.629,-320.068,63.171,271.484
-0.012,0.974,-0.255,-222.351,77.271,208.923
-0.063,0.501,-0.078,-95.886,78.186,143.616
-0.068,0.120,0.069,14.587,66.467,87.585
-0.045,0.054,0.314,82.336,51.270,42.236
-0.130,0.162,0.508,114.624,43.213,3.601
-0.035,0.119,0.541,126.099,42.969,-28.992
0.053,0.178,0.495,115.967,38.757,-50.659
0.087,0.410,0.436,88.501,29.907,-60.364
0.067,0.707,0.312,44.739,18.311,-71.228
0.029,0.946,0.118,2.197,5.127,-79.773
0.008,1.096,-0.060,-25.024,-5.554,-72.998
-0.086,1.206,-0.185,-42.969,-14.099,-49.988
-0.100,1.219,-0.289,-52.673,-16.541,-22.034
-0.131,1.262,-0.367,-59.204,-12.329,-0.427
-0.148,1.223,-0.377,-46.387,-5.493,18.982
-0.179,1.162,-0.329,-24.109,2.808,28.015
-0.171,1.056,-0.267,-0.732,14.465,29.175
-0.150,0.957,-0.171,19.775,25.085,24.475
-0.127,0.896,-0.072,36.865,32.837,17.212
-0.104,0.854,0.020,50.110,36.804,8.057
-0.082,0.814,0.081,60.608,35.767,-1.343
-0.071,0.763,0.110,64.941,30.029,-7.690
-0.102,0.734,0.110,58.655,21.729,-10.681
-0.130,0.758,0.108,41.626,14.099,-11.169
-0.138,0.803,0.078,20.081,7.690,-10.071
-0.144,0.857,0.029,-1.038,2.930,-8.972
-0.160,0.918,-0.027,-17.273,-0.854,-6.653
-0.176,0.965,-0.087,-25.391,-3.540,-4.028
-0.191,0.998,-0.142,-26.123,-5.127,-1.587
-0.190,1.025,-0.185,-20.630,-5.310,0.366
-0.209,1.024,-0.207,-10.437,-4.089,1.221
-0.217,1.023,-0.208,-0.122,-0.244,1.038
-0.219,0.998,-0.199,9.155,6.226,0.122
-0.237,0.959,-0.173,14.343,11.963,-1.343
-0.240,0.967,-0.146,15.381,16.785,-2.808
-0.218,0.973,-0.115,16.174,20.508,-4.517
-0.203,0.973,-0.097,17.456,21.423,-6.470
-0.191,0.961,-0.082,17.273,20.813,-7.507
-0.192,0.952,-0.065,14.954,18.616,-6.592
-0.182,0.960,-0.054,11.230,15.381,-4.761
-0.193,0.962,-0.040,7.690,11.292,-3.662
-0.200,0.946,-0.042,3.540,8.301,-2.869
-0.200,0.928,-0.035,-1.343,6.592,-1.404
-0.208,0.943,-0.031,-6.042,4.395,0.732
-0.206,0.949,-0.029,-8.972,1.831,1.892
-0.205,0.958,-0.033,-8.850,0.122,2.441
-0.195,0.981,-0.051,-6.592,-0.305,3.052
-0.192,0.974,-0.064,-3.784,-0.183,3.052
-0.200,0.973,-0.080,-2.319,0.061,2.930
-0.196,0.978,-0.083,-2.869,0.671,2.930
-0.196,0.972,-0.085,-3.540,1.831,2.441
-0.200,0.967,-0.091,-5.127,3.296,1.892
-0.197,0.974,-0.098,-7.202,5.371,1.892
-0.194,0.982,-0.093,-8.728,7.568,2.502
-0.190,0.975,-0.089,-9.399,9.521,2.991
-0.177,0.964,-0.079,-9.338,10.010,3.479
-0.180,0.946,-0.073,-8.911,9.460,3.113
-0.179,0.921,-0.066,-9.094,8.545,1.953
-0.181,0.919,-0.062,-10.315,7.935,0.427
-0.190,0.946,-0.057,-10.803,7.996,-0.244
-0.184,0.968,-0.050,-8.972,7.935,-0.183
-0.182,0.957,-0.045,-5.737,6.348,-0.183
-0.184,0.951,-0.044,-2.014,3.601,0.366
-0.187,0.939,-0.051,1.038,0.366,0.305
-0.191,0.929,-0.060,3.235,-2.014,-0.671
-0.198,0.932,-0.066,3.784,-2.502,-1.892
-0.196,0.949,-0.078,2.136,-1.160,-2.441
-0.202,0.945,-0.089,0.366,0.977,-2.441
-0.185,0.940,-0.110,-1.038,2.991,-1.770
-0.186,0.939,-0.118,-1.892,2.319,-0.244
-0.184,0.932,-0.135,-2.930,1.526,-0.427
-0.197,0.930,-0.134,-3.296,0.732,-0.793
-0.201,0.942,-0.126,-2.930,0.610,-0.671
-0.196,0.952,-0.121,-1.282,0.977,-0.244
-0.200,0.941,-0.114,2.502,0.916,-0.122
-0.198,0.943,-0.109,6.042,0.549,-0.244
-0.197,0.930,-0.103,8.545,0.427,-1.038
-0.199,0.913,-0.099,8.667,0.916,-2.014
-0.196,0.920,-0.095,6.531,1.770,-2.136
-0.193,0.937,-0.095,3.967,2.380,-1.831
-0.184,0.954,-0.097,2.930,2.014,-2.075
-0.182,0.966,-0.106,4.028,0.488,-2.075
-0.193,0.964,-0.109,5.920,-1.038,-1.770
-0.198,0.963,-0.117,6.042,-1.343,-1.465
-0.205,0.963,-0.126,4.700,-0.732,-0.854
-0.212,0.974,-0.123,2.502,0.305,0.122
-0.207,0.985,-0.119,1.099,1.160,1.099
-0.208,0.987,-0.115,1.526,1.465,1.465
-0.209,0.976,-0.114,2.869,1.587,1.343
-0.207,0.958,-0.108,3.723,2.075,1.221
-0.205,0.959,-0.110,3.174,2.869,1.587
-0.195,0.964,-0.107,2.747,3.845,2.136
-0.192,0.972,-0.104,3.418,3.052,2.441
-0.194,0.979,-0.100,4.028,2.441,2.930
-0.186,0.979,-0.101,4.761,2.136,3.113
-0.177,0.969,-0.099,5.737,1.770,2.625
-0.177,0.952,-0.101,6.348,1.404,1.709
-0.175,0.941,-0.100,5.798,1.099,0.610
-0.180,0.934,-0.102,5.066,1.160,-0.244
-0.195,0.939,-0.095,4.822,2.258,-0.488
-0.191,0.940,-0.094,4.028,4.028,-0.610
-0.180,0.952,-0.094,2.991,4.578,-0.366
-0.188,0.957,-0.093,2.869,3.479,0.061
-0.193,0.954,-0.093,2.991,2.502,0.610
-0.194,0.961,-0.086,2.075,2.930,1.526
-0.197,0.960,-0.085,1.099,4.028,2.136
-0.200,0.954,-0.088,0.427,5.066,2.747

3.596,0.605,0.389,-110.474,-37.231,-252.686
4.000,1.531,0.358,-41.321,-81.177,-224.731
4.000,2.609,0.377,83.618,-107.849,-227.173
3.998,3.347,0.277,228.577,-111.206,-260.315
2.840,3.071,-0.203,328.796,-101.196,-296.692
1.840,2.497,-1.109,282.349,-98.145,-291.870
1.198,3.371,-1.909,93.201,-107.544,-224.060
-0.053,2.647,-2.186,-126.953,-115.601,-111.511
-0.216,2.481,-2.471,-380.127,-81.482,53.528
-0.356,2.752,-1.644,-511.902,-18.860,227.356
-0.086,2.526,-1.330,-488.586,57.068,299.072
0.130,1.936,-0.762,-377.747,110.596,251.831
0.200,1.093,-0.490,-198.425,113.098,163.330
0.057,0.507,-0.276,-8.301,91.919,89.233
0.042,0.142,-0.140,112.000,73.303,36.072
0.028,0.166,0.091,157.471,58.899,1.465
-0.058,0.253,0.351,181.702,53.101,-19.958
0.012,0.215,0.464,184.814,57.190,-38.330
0.023,0.237,0.503,160.339,55.908,-48.767
0.082,0.387,0.563,119.385,45.898,-54.138
0.104,0.522,0.531,77.698,29.053,-59.326
0.101,0.663,0.373,39.978,5.432,-60.120
0.054,0.841,0.228,12.085,-18.433,-52.734
0.011,1.062,0.074,-5.371,-35.767,-40.161
-0.004,1.155,-0.122,-11.536,-44.250,-28.748
-0.035,1.181,-0.285,-11.475,-46.570,-18.921
-0.108,1.199,-0.380,-9.949,-43.274,-9.705
-0.122,1.231,-0.419,-6.958,-32.288,-1.770
-0.116,1.249,-0.395,1.343,-16.418,3.479
-0.087,1.190,-0.334,15.625,-0.061,5.432
-0.081,1.140,-0.238,30.762,14.709,6.104
-0.054,1.087,-0.136,43.335,25.452,5.432
-0.006,1.018,-0.050,53.162,30.518,3.601
-0.073,0.972,0.039,58.655,28.381,1.038
-0.045,0.960,0.080,58.044,23.193,-1.099
-0.026,0.959,0.101,53.528,15.442,-2.747
-0.030,0.952,0.097,46.265,7.446,-3.357
-0.030,0.944,0.069,37.292,-0.305,0.183
-0.043,0.940,0.028,25.940,-4.456,5.798
-0.057,0.934,-0.027,13.855,-6.958,11.169
-0.079,0.922,-0.067,2.747,-8.179,14.709
-0.098,0.922,-0.097,-5.981,-7.629,16.113
-0.134,0.927,-0.106,-10.986,-6.104,15.503
-0.143,0.951,-0.125,-13.245,-2.686,13.489
-0.136,0.974,-0.129,-10.864,1.038,10.193
-0.125,1.007,-0.132,-4.517,4.395,6.409
-0.124,1.019,-0.134,4.578,6.470,2.441
-0.128,1.014,-0.131,12.817,7.568,-0.671
-0.134,1.012,-0.122,16.113,7.385,-2.625
-0.139,1.001,-0.115,15.198,6.836,-3.235
-0.139,0.994,-0.113,12.878,6.470,-1.648
-0.142,0.987,-0.112,9.094,6.897,2.014
-0.134,0.977,-0.115,4.944,7.385,6.104
-0.142,0.970,-0.113,0.549,7.324,9.827
-0.146,0.958,-0.108,-3.601,7.446,12.695
-0.155,0.951,-0.097,-6.897,7.568,14.587
-0.165,0.935,-0.091,-9.583,8.240,15.564
-0.169,0.937,-0.089,-11.902,9.521,15.320
-0.161,0.940,-0.078,-12.573,9.644,13.794
-0.148,0.926,-0.069,-11.353,8.850,10.803
-0.157,0.914,-0.056,-9.460,6.714,8.728
-0.154,0.925,-0.049,-7.812,5.066,7.141
-0.152,0.930,-0.049,-6.836,2.502,5.615
-0.145,0.924,-0.061,-5.554,0.793,3.357
-0.149,0.934,-0.069,-4.639,-0.854,0.977
-0.144,0.955,-0.076,-3.601,-2.075,-0.427
-0.134,0.972,-0.073,-1.160,-2.258,-1.038
-0.137,0.971,-0.080,1.099,-1.831,-0.610
-0.136,0.952,-0.097,0.488,-1.526,0.916
-0.152,0.954,-0.077,-1.648,-1.526,3.052
-0.157,0.953,-0.079,-4.395,-0.977,4.456
-0.151,0.966,-0.077,-6.104,-0.854,4.761
-0.154,0.951,-0.073,-5.920,-1.526,4.028
-0.161,0.938,-0.074,-6.226,-2.197,3.052
-0.158,0.931,-0.072,-6.470,-2.625,2.625
-0.154,0.935,-0.073,-6.287,-2.563,2.747
-0.155,0.952,-0.084,-6.104,-2.441,3.601
-0.144,0.967,-0.097,-5.249,-2.869,4.150
-0.144,0.966,-0.113,-3.662,-4.028,3.967
-0.153,0.960,-0.129,-2.075,-5.066,3.601
-0.166,0.938,-0.148,-0.977,-5.066,3.540
-0.174,0.938,-0.159,-1.587,-3.601,4.578
-0.177,0.963,-0.161,-4.028,-1.221,5.920
-0.174,0.973,-0.151,-5.737,1.526,6.653
-0.167,0.979,-0.145,-5.493,3.784,6.653
-0.166,0.971,-0.140,-3.296,5.005,5.432
-0.165,0.946,-0.138,-0.427,5.310,3.723
-0.167,0.927,-0.136,0.610,5.859,1.587
-0.173,0.919,-0.128,-0.366,6.836,0.000
-0.161,0.940,-0.130,-2.625,8.606,-0.366
-0.153,0.956,-0.131,-4.211,9.277,-0.427
-0.150,0.974,-0.129,-3.418,8.118,-0.793
-0.162,0.971,-0.128,-0.610,5.981,-1.160
-0.171,0.957,-0.125,1.892,4.456,-1.831
-0.177,0.952,-0.125,3.296,4.578,-2.014
-0.181,0.970,-0.129,4.395,6.287,-0.793
-0.171,0.971,-0.140,4.517,8.545,0.854
-0.161,0.958,-0.139,3.235,10.254,1.526
-0.156,0.958,-0.129,0.427,10.620,1.892
-0.161,0.959,-0.113,-2.441,9.827,2.686
-0.158,0.969,-0.104,-4.211,8.972,3.357
-0.161,0.975,-0.098,-3.418,7.568,3.723
-0.159,0.982,-0.094,-0.916,5.737,3.540
-0.153,0.980,-0.097,2.441,4.639,3.174
-0.149,0.969,-0.101,6.104,2.869,2.869
-0.147,0.957,-0.107,7.263,1.526,2.686
-0.154,0.959,-0.117,5.554,1.709,2.991
-0.154,0.961,-0.129,2.441,2.686,3.601
-0.160,0.958,-0.131,0.671,3.479,3.845
-0.166,0.952,-0.132,0.854,4.395,3.784
-0.163,0.949,-0.120,2.136,4.944,3.662
-0.160,0.932,-0.107,4.578,5.249,3.052
-0.163,0.920,-0.090,6.775,5.798,2.258
-0.165,0.921,-0.082,7.019,6.226,1.404
-0.161,0.927,-0.074,6.897,5.920,0.549
-0.154,0.932,-0.074,7.324,5.066,-0.977
-0.152,0.941,-0.071,7.812,3.906,-2.380
-0.149,0.952,-0.076,8.423,2.625,-3.052
-0.152,0.953,-0.080,9.033,1.343,-2.441

3.432,1.048,0.325,-30.518,-76.050,-279.907
3.708,2.001,0.358,46.326,-96.680,-270.630
3.678,2.994,0.464,160.217,-95.337,-288.818
3.218,3.452,0.477,280.640,-72.571,-326.904
2.311,2.920,-0.055,341.858,-58.533,-348.450
1.427,2.434,-0.917,266.357,-79.590,-311.951
0.855,3.367,-1.750,93.567,-103.821,-218.689
-0.154,2.969,-1.615,-84.045,-122.314,-93.201
-0.415,2.610,-2.062,-282.166,-117.981,70.679
-0.263,2.610,-1.673,-419.189,-42.053,209.045
-0.214,2.278,-1.228,-440.430,4.639,270.874
-0.176,1.653,-0.672,-377.930,54.016,237.427
0.005,0.986,-0.401,-232.788,75.623,165.894
-0.089,0.385,-0.195,-62.927,78.979,87.402
-0.039,-0.168,-0.154,50.476,64.026,33.447
-0.192,0.142,0.273,90.332,42.847,13.794
-0.141,0.306,0.509,105.713,35.828,-12.817
-0.117,0.280,0.601,119.995,34.912,-46.997
-0.041,0.276,0.579,114.990,28.076,-68.359
0.018,0.471,0.566,95.764,12.695,-73.059
0.028,0.631,0.439,75.256,-5.981,-72.632
-0.017,0.776,0.235,47.424,-26.733,-68.542
-0.078,1.031,0.043,15.808,-40.588,-60.974
-0.115,1.179,-0.163,-10.437,-43.091,-51.453
-0.135,1.263,-0.353,-30.579,-38.635,-39.612
-0.169,1.316,-0.469,-39.734,-31.372,-22.583
-0.172,1.345,-0.492,-37.903,-21.179,-6.714
-0.195,1.290,-0.449,-25.757,-8.911,3.418
-0.184,1.211,-0.353,-7.324,4.639,8.545
-0.161,1.113,-0.246,14.221,17.578,7.751
-0.105,1.016,-0.158,35.706,27.161,2.563
-0.081,0.945,-0.057,51.697,30.762,-2.502
-0.056,0.908,0.028,57.556,32.715,-6.104
-0.037,0.894,0.086,56.274,29.114,-8.362
-0.040,0.844,0.118,49.133,21.729,-9.399
-0.060,0.832,0.136,33.386,12.695,-7.202
-0.073,0.864,0.123,12.085,4.517,-3.601
-0.097,0.893,0.084,-7.080,-2.319,0.305
-0.122,0.911,0.018,-20.935,-7.751,4.089
-0.148,0.919,-0.047,-29.907,-11.719,7.019
-0.162,0.934,-0.117,-35.095,-13.794,9.277
-0.168,0.956,-0.175,-35.339,-13.611,9.949
-0.179,0.959,-0.209,-31.433,-10.071,8.301
-0.187,0.969,-0.227,-23.621,-6.042,6.958
-0.191,0.983,-0.220,-14.893,-0.977,4.333
-0.183,0.993,-0.207,-5.676,3.967,0.244
-0.180,0.989,-0.188,4.456,7.446,-3.296
-0.180,0.983,-0.174,13.062,9.338,-5.920
-0.164,0.972,-0.159,18.311,9.399,-8.362
-0.163,0.960,-0.146,21.667,7.996,-9.338
-0.164,0.938,-0.141,23.132,6.042,-7.690
-0.165,0.931,-0.139,21.606,2.930,-4.944
-0.161,0.915,-0.135,18.555,0.732,-3.479
-0.167,0.899,-0.125,14.221,-1.099,-3.235
-0.160,0.904,-0.124,8.362,-1.526,-3.357
-0.158,0.903,-0.127,2.014,-1.343,-3.845
-0.160,0.902,-0.132,-3.662,-0.732,-3.784
-0.171,0.911,-0.136,-8.362,0.305,-2.869
-0.165,0.920,-0.147,-10.986,1.648,-1.770
-0.167,0.936,-0.158,-11.963,2.136,-1.831
-0.168,0.955,-0.160,-11.414,2.686,-2.686
-0.163,0.972,-0.160,-9.644,3.723,-3.601
-0.154,0.981,-0.147,-6.836,4.761,-4.333
-0.152,0.981,-0.132,-3.601,4.944,-4.761
-0.153,0.973,-0.120,-0.610,3.784,-4.883
-0.148,0.982,-0.106,1.892,2.014,-4.822
-0.143,0.989,-0.096,4.395,0.183,-5.127
-0.144,0.993,-0.093,6.958,-1.160,-5.066
-0.137,0.990,-0.102,8.362,-1.770,-4.456
-0.136,0.988,-0.109,8.728,-2.258,-3.174
-0.143,0.978,-0.115,7.080,-2.380,-0.671
-0.153,0.980,-0.123,5.676,-2.014,2.380
-0.149,0.980,-0.126,2.991,-1.282,3.113
-0.159,0.973,-0.129,1.526,-0.916,2.991
-0.159,0.975,-0.132,1.770,-0.305,3.052
-0.153,0.973,-0.132,3.113,0.305,1.831
-0.154,0.961,-0.133,5.066,-0.244,0.122
-0.158,0.951,-0.132,6.775,-0.549,-0.916
-0.160,0.958,-0.132,7.385,-1.221,-1.160
-0.156,0.964,-0.131,7.385,-1.465,-1.221
-0.151,0.970,-0.137,6.775,-1.404,-0.610
-0.152,0.962,-0.142,5.554,-1.465,0.854
-0.161,0.947,-0.146,3.540,-1.465,2.441
-0.160,0.948,-0.151,1.343,-1.648,3.845
-0.172,0.949,-0.141,-0.549,-1.526,4.395
-0.173,0.955,-0.135,-1.465,-0.671,4.028
-0.168,0.963,-0.134,-0.854,0.183,2.991
-0.165,0.969,-0.135,2.136,0.793,1.282
-0.163,0.958,-0.139,6.104,1.160,-0.244
-0.163,0.952,-0.139,8.423,1.404,-0.854
-0.157,0.955,-0.132,8.545,1.770,-1.099
-0.155,0.955,-0.130,7.996,2.014,-1.587
-0.163,0.951,-0.128,7.568,2.014,-1.587
-0.170,0.961,-0.129,6.775,2.197,-1.221
-0.165,0.960,-0.129,6.226,1.953,-0.732
-0.163,0.962,-0.127,5.676,2.014,-0.610
-0.162,0.967,-0.123,5.127,2.380,-0.732
-0.155,0.970,-0.123,5.066,2.686,-0.305
-0.160,0.970,-0.128,5.005,2.869,0.305
-0.167,0.978,-0.130,4.700,2.930,1.099
-0.164,0.979,-0.137,4.639,3.174,1.587
-0.164,0.969,-0.146,4.333,3.235,1.953
-0.164,0.957,-0.148,3.601,3.784,2.686
-0.166,0.945,-0.139,1.953,4.456,3.479
-0.154,0.940,-0.134,0.000,5.554,4.150
-0.154,0.925,-0.108,-0.549,5.493,4.333
-0.158,0.919,-0.094,1.404,5.249,2.686
-0.155,0.919,-0.087,3.113,4.700,1.770
-0.160,0.913,-0.073,4.272,4.456,0.610
-0.158,0.926,-0.070,4.944,3.723,-0.977
-0.150,0.939,-0.070,5.798,2.869,-2.258
-0.149,0.948,-0.070,6.226,2.136,-2.563
-0.141,0.948,-0.084,5.188,1.831,-1.709
-0.141,0.944,-0.096,2.747,0.977,-0.610
-0.144,0.962,-0.101,-0.549,0.122,0.549
-0.145,0.968,-0.108,-3.052,-0.305,1.282
-0.152,0.964,-0.107,-4.028,-0.549,1.709
-0.154,0.963,-0.112,-3.479,-0.366,2.014
-0.154,0.957,-0.114,-1.465,-0.305,1.465

2.872,0.811,0.365,-87.158,85.144,-247.559
3.270,1.504,0.451,-97.473,73.425,-232.971
3.475,2.435,0.484,-72.510,58.594,-233.582
3.149,3.037,0.548,26.001,30.029,-245.056
2.481,2.971,0.414,158.997,-7.629,-251.160
1.839,2.344,-0.070,234.375,-43.762,-236.572
1.342,2.220,-0.656,208.069,-92.468,-179.749
0.636,2.669,-1.059,120.850,-150.818,-102.173
0.286,3.047,-1.369,3.906,-127.136,-44.800
-0.075,2.403,-1.534,-103.577,-88.501,14.771
-0.303,2.051,-1.543,-202.576,-29.907,86.609
-0.304,1.939,-1.209,-250.549,30.396,150.452
-0.116,1.499,-0.790,-227.417,84.534,160.095
0.086,0.911,-0.466,-160.034,111.450,126.404
-0.004,0.450,-0.119,-61.707,104.370,86.548
0.052,0.129,0.138,31.738,86.853,50.293
0.003,0.066,0.544,97.839,64.575,19.165
0.023,0.080,0.727,141.418,47.546,-10.681
0.124,0.144,0.762,158.813,30.884,-39.673
0.173,0.256,0.693,153.687,9.888,-62.622
0.129,0.408,0.565,121.521,-11.230,-74.890
0.050,0.632,0.345,64.026,-27.893,-73.853
-0.017,0.911,0.071,-3.479,-38.269,-60.791
-0.065,1.184,-0.162,-60.791,-40.894,-39.673
-0.116,1.360,-0.320,-94.177,-34.607,-15.686
-0.146,1.440,-0.400,-98.267,-21.729,5.859
-0.155,1.380,-0.409,-77.820,-7.385,21.423
-0.146,1.238,-0.353,-43.945,6.104,28.870
-0.124,1.076,-0.239,-8.545,17.700,29.175
-0.094,0.942,-0.081,20.203,23.376,24.536
-0.085,0.870,0.070,40.283,24.963,16.113
-0.037,0.841,0.185,53.284,23.743,6.226
-0.007,0.817,0.238,61.768,17.090,-2.441
-0.010,0.782,0.224,60.364,6.653,-7.385
-0.031,0.778,0.169,45.593,-3.357,-7.568
-0.068,0.773,0.100,20.508,-10.315,-4.761
-0.101,0.828,0.035,-11.719,-14.038,-1.160
-0.124,0.914,-0.026,-39.978,-14.771,1.526
-0.134,0.952,-0.088,-53.345,-13.672,1.953
-0.154,0.993,-0.138,-54.443,-11.414,1.953
-0.158,1.046,-0.178,-47.424,-8.118,1.709
-0.157,1.057,-0.207,-32.959,-5.188,-0.061
-0.161,1.044,-0.225,-16.663,-2.502,-1.892
-0.168,1.042,-0.223,-3.540,0.732,-2.380
-0.170,1.025,-0.209,5.310,4.944,-2.747
-0.153,1.027,-0.179,8.606,8.850,-3.113
-0.145,1.013,-0.139,8.667,11.414,-3.784
-0.143,1.005,-0.103,7.324,12.146,-3.784
-0.138,0.999,-0.074,5.127,10.620,-2.747
-0.140,0.999,-0.049,3.906,6.897,-1.282
-0.148,0.994,-0.055,3.662,2.014,-0.244
-0.160,0.999,-0.075,4.272,-2.625,0.427
-0.167,0.999,-0.096,5.310,-5.493,1.343
-0.170,1.000,-0.115,5.981,-6.348,2.502
-0.170,0.986,-0.137,4.944,-4.761,3.479
-0.167,0.972,-0.150,2.380,-1.465,4.272
-0.163,0.955,-0.148,-1.465,1.221,5.493
-0.166,0.953,-0.141,-5.493,3.479,6.592
-0.155,0.951,-0.131,-8.057,6.104,7.080
-0.141,0.931,-0.126,-8.301,7.874,5.920
-0.152,0.904,-0.106,-8.362,7.629,4.578
-0.144,0.900,-0.086,-8.911,7.812,3.906
-0.134,0.905,-0.073,-8.301,6.836,2.502
-0.139,0.919,-0.066,-5.249,3.296,-0.488
-0.139,0.931,-0.065,0.488,-0.427,-3.418
-0.142,0.935,-0.086,6.714,-2.869,-4.517
-0.144,0.953,-0.104,10.803,-3.845,-4.211
-0.152,0.960,-0.114,11.353,-3.113,-3.113
-0.152,0.954,-0.114,8.850,-1.038,-1.160
-0.147,0.944,-0.114,2.869,1.892,0.854
-0.143,0.938,-0.104,-3.113,4.333,2.380
-0.153,0.933,-0.095,-7.812,6.165,3.540
-0.146,0.944,-0.076,-10.010,7.202,3.967
-0.129,0.958,-0.065,-8.972,7.019,3.479
-0.128,0.944,-0.063,-5.249,5.432,2.014
-0.131,0.948,-0.061,-1.404,2.441,0.671
-0.124,0.960,-0.063,1.892,-0.916,-0.732
-0.130,0.963,-0.066,5.432,-4.150,-2.747
-0.144,0.960,-0.075,7.446,-6.409,-4.150
-0.146,0.956,-0.088,7.996,-6.714,-3.967
-0.144,0.962,-0.101,8.057,-5.432,-1.343
-0.138,0.951,-0.111,5.554,-3.662,1.038
-0.143,0.940,-0.115,1.465,-1.587,2.747
-0.144,0.933,-0.125,-2.319,-0.183,3.540
-0.151,0.924,-0.125,-4.639,1.038,3.601
-0.164,0.936,-0.115,-5.737,2.563,3.174
-0.152,0.957,-0.099,-5.615,4.211,1.709
-0.143,0.962,-0.086,-2.563,4.456,-0.610
-0.144,0.949,-0.075,2.075,3.235,-2.197
-0.152,0.950,-0.063,5.432,1.587,-2.502
-0.135,0.955,-0.065,7.446,0.305,-2.930
-0.133,0.955,-0.078,9.521,-1.404,-3.906
-0.143,0.951,-0.093,10.986,-2.441,-4.639
-0.146,0.956,-0.104,10.376,-2.258,-4.333
-0.147,0.964,-0.110,9.277,-1.587,-3.906
-0.151,0.980,-0.114,8.423,-0.732,-3.723
-0.156,0.987,-0.117,7.751,-0.061,-4.028
-0.155,0.999,-0.117,7.629,1.099,-4.150
-0.150,1.005,-0.121,7.263,2.747,-3.357
-0.143,1.003,-0.129,6.531,4.272,-2.319
-0.139,1.000,-0.122,5.066,5.005,-1.221
-0.139,0.988,-0.118,2.747,5.676,-0.183
-0.139,0.984,-0.113,0.183,6.409,0.671
-0.133,0.972,-0.117,-1.038,6.714,1.099
-0.138,0.967,-0.106,-0.366,6.287,1.404
-0.134,0.977,-0.102,0.549,5.249,2.380
-0.130,0.977,-0.095,2.136,3.967,3.052
-0.130,0.968,-0.089,4.578,3.113,3.113
-0.126,0.952,-0.084,6.104,2.502,2.258
-0.126,0.933,-0.082,6.775,1.587,0.671
-0.126,0.926,-0.074,6.042,0.671,-0.793
-0.132,0.939,-0.069,4.333,0.549,-1.160
-0.130,0.952,-0.069,2.502,1.282,-0.732
-0.128,0.958,-0.074,0.549,1.709,-0.366
-0.124,0.969,-0.078,-0.977,1.587,-0.122
-0.126,0.973,-0.081,-1.587,1.160,-0.183
-0.133,0.964,-0.090,-1.282,1.160,-0.244
-0.139,0.967,-0.086,-0.916,1.770,0.549
-0.138,0.983,-0.078,-0.488,2.441,1.831

3.687,0.250,0.552,-114.441,47.668,-224.304
4.000,1.100,0.657,-51.025,12.573,-222.168
4.000,2.382,0.549,72.876,-30.396,-233.459
3.999,3.503,0.455,264.526,-68.176,-268.677
2.886,3.555,-0.202,429.993,-79.712,-318.665
2.158,3.722,-0.831,437.073,-90.820,-339.478
1.113,3.151,-1.682,321.716,-79.224,-293.213
-0.248,1.935,-1.474,88.501,-91.553,-142.639
-0.184,2.534,-2.013,-239.624,-82.336,83.923
0.041,2.744,-1.227,-453.308,4.944,246.582
0.221,2.401,-0.841,-454.224,47.729,296.936
0.166,1.508,-0.470,-341.675,69.946,242.676
0.126,0.818,-0.187,-136.963,68.970,166.748
0.000,0.136,0.033,75.012,62.866,92.163
-0.017,-0.254,0.203,189.026,40.894,41.809
-0.242,-0.187,0.444,219.055,23.621,15.747
-0.248,-0.192,0.625,214.355,28.625,-12.146
-0.145,-0.114,0.745,175.415,37.231,-37.292
-0.062,0.111,0.767,107.605,38.879,-59.631
0.038,0.321,0.674,36.743,31.433,-75.928
0.081,0.573,0.524,-22.156,13.306,-80.811
0.059,0.913,0.381,-62.073,-8.301,-76.355
0.065,1.188,0.152,-73.792,-25.513,-65.369
0.004,1.316,-0.064,-61.523,-40.466,-47.913
-0.022,1.383,-0.250,-36.438,-48.218,-27.161
-0.098,1.386,-0.352,-18.982,-44.922,-8.606
-0.129,1.385,-0.389,-7.507,-33.936,6.165
-0.114,1.329,-0.337,0.000,-16.907,12.878
-0.086,1.237,-0.250,13.306,1.587,15.442
-0.055,1.133,-0.134,28.809,17.212,15.320
-0.021,1.018,-0.015,41.260,28.015,13.916
-0.011,0.904,0.094,46.509,32.898,11.902
0.001,0.850,0.180,46.875,29.907,10.803
0.009,0.827,0.236,43.945,21.179,8.850
-0.011,0.819,0.266,41.443,7.263,7.385
-0.049,0.826,0.242,35.400,-7.141,5.249
-0.077,0.837,0.186,23.499,-17.029,2.563
-0.110,0.863,0.119,5.737,-21.912,0.549
-0.130,0.899,0.053,-15.015,-22.522,0.000
-0.122,0.952,-0.014,-31.738,-20.325,0.122
-0.133,0.975,-0.064,-38.635,-17.029,0.244
-0.139,0.996,-0.106,-39.124,-12.939,1.038
-0.144,1.020,-0.135,-33.997,-8.789,2.380
-0.163,1.051,-0.149,-24.048,-4.639,2.808
-0.165,1.072,-0.151,-11.292,-0.488,1.709
-0.165,1.049,-0.153,1.221,4.333,-0.061
-0.165,1.031,-0.141,9.521,8.545,-0.793
-0.150,1.026,-0.112,13.245,11.475,-0.854
-0.136,1.010,-0.081,14.404,12.329,-1.404
-0.140,0.988,-0.053,13.550,11.108,-2.014
-0.133,0.985,-0.033,11.841,8.789,-1.404
-0.130,0.960,-0.024,10.193,5.127,0.000
-0.134,0.933,-0.029,7.935,2.014,1.404
-0.140,0.915,-0.033,4.578,-0.916,3.296
-0.141,0.924,-0.031,0.977,-2.258,4.150
-0.141,0.922,-0.050,-2.136,-2.197,3.540
-0.155,0.910,-0.066,-6.287,-1.709,2.686
-0.161,0.918,-0.072,-12.207,0.061,2.380
-0.162,0.941,-0.071,-18.738,2.075,2.014
-0.154,0.953,-0.074,-22.339,3.906,0.854
-0.162,0.971,-0.045,-21.484,5.005,0.122
-0.155,0.995,-0.028,-16.785,4.883,0.549
-0.143,1.004,-0.012,-9.155,3.296,1.221
-0.137,0.987,-0.010,-0.671,1.160,1.160
-0.131,0.958,-0.012,5.310,-0.610,0.244
-0.138,0.943,-0.008,6.592,-1.221,-1.038
-0.146,0.941,-0.012,4.517,-0.244,-1.831
-0.146,0.946,-0.025,3.845,2.075,-1.770
-0.142,0.955,-0.044,4.822,4.517,-0.610
-0.125,0.954,-0.054,4.395,6.287,0.244
-0.131,0.958,-0.036,2.380,7.141,1.282
-0.137,0.960,-0.020,0.305,7.446,1.892
-0.146,0.958,-0.001,-1.465,7.507,2.014
-0.139,0.962,0.006,-2.625,7.324,1.526
-0.130,0.958,0.009,-2.319,6.348,1.099
-0.130,0.954,0.013,-1.221,4.456,1.038
-0.127,0.964,0.013,-0.122,1.343,1.526
-0.129,0.977,0.005,1.404,-2.441,1.282
-0.132,0.973,-0.011,3.601,-5.493,0.427
-0.131,0.967,-0.036,4.639,-6.714,-0.244
-0.131,0.957,-0.057,4.272,-6.714,0.122
-0.132,0.944,-0.064,2.258,-5.737,1.099
-0.133,0.942,-0.065,-0.793,-4.395,2.014
-0.133,0.938,-0.070,-2.625,-3.967,2.197
-0.135,0.918,-0.078,-2.869,-3.662,0.977
-0.148,0.920,-0.078,-2.686,-2.991,-0.122
-0.158,0.954,-0.062,-2.197,-1.465,-0.610
-0.153,0.974,-0.056,0.977,0.366,-1.892
-0.149,0.979,-0.063,5.615,1.709,-3.601
-0.150,0.987,-0.066,9.399,2.563,-4.517
-0.143,0.997,-0.070,10.986,3.601,-4.883
-0.133,1.004,-0.059,11.475,4.639,-4.883
-0.119,0.999,-0.054,10.864,5.554,-4.395
-0.115,1.000,-0.054,10.010,5.249,-3.357
-0.115,0.998,-0.048,9.766,3.845,-1.770
-0.113,1.005,-0.046,9.521,1.831,-0.244
-0.120,1.004,-0.053,9.521,-0.244,0.488
-0.127,0.992,-0.060,9.827,-1.099,0.427
-0.139,0.981,-0.069,8.606,-0.977,0.549
-0.147,0.987,-0.070,6.531,0.305,0.916
-0.154,0.996,-0.071,5.066,2.380,1.343
-0.162,1.004,-0.060,5.066,4.456,1.465
-0.151,1.010,-0.045,6.775,6.592,0.916
-0.138,1.000,-0.038,9.583,8.057,-0.061
-0.124,0.989,-0.026,11.780,8.057,-0.427
-0.121,0.985,-0.015,11.841,6.714,0.183
-0.120,0.979,-0.009,9.705,6.226,1.404
-0.128,0.970,-0.004,7.507,5.127,2.869
-0.128,0.962,0.003,5.249,4.150,3.784
-0.135,0.941,0.006,3.601,3.113,3.723
-0.134,0.931,0.004,2.991,2.075,3.174
-0.133,0.928,0.003,2.625,1.038,2.319
-0.130,0.932,-0.000,2.563,0.793,1.404
-0.126,0.930,-0.008,2.502,0.916,0.305
-0.125,0.925,-0.010,2.197,0.854,-0.732
-0.131,0.937,-0.004,2.014,0.610,-1.709
-0.137,0.953,0.001,2.869,0.610,-2.380
-0.136,0.959,0.000,4.456,1.465,-3.357
-0.130,0.956,-0.001,5.493,1.953,-4.211

2.703,-0.099,0.401,-109.863,7.751,-132.935
3.179,0.428,0.349,-69.458,16.785,-149.780
3.723,1.488,0.467,6.226,35.034,-188.293
3.680,2.493,0.548,122.070,52.185,-242.310
3.011,2.902,0.262,245.544,61.401,-303.101
2.650,2.894,-0.513,291.565,34.912,-336.304
1.802,3.578,-1.102,306.458,-60.547,-288.147
0.667,2.438,-1.411,201.477,-94.055,-231.140
-0.183,2.044,-1.367,24.475,-114.197,-74.890
0.053,2.626,-1.266,-187.927,-74.280,128.723
0.167,2.546,-0.742,-302.124,-10.315,265.747
0.252,2.091,-0.463,-308.655,44.922,289.124
0.124,1.289,-0.280,-256.836,61.462,239.502
-0.022,0.697,-0.005,-148.193,60.303,175.537
-0.051,0.307,0.318,-19.653,55.847,119.568
0.037,0.066,0.602,76.111,45.105,73.059
-0.108,0.108,0.834,131.958,32.104,33.997
-0.099,0.038,0.825,151.123,27.771,-2.258
-0.073,0.018,0.804,139.343,23.376,-27.405
-0.026,0.159,0.784,95.825,15.503,-44.617
0.072,0.401,0.686,35.522,5.310,-55.664
0.094,0.688,0.543,-26.611,-8.240,-63.232
0.055,0.982,0.364,-71.594,-19.409,-61.646
0.066,1.143,0.129,-94.849,-26.733,-51.392
0.073,1.235,-0.089,-99.487,-31.799,-33.813
0.053,1.272,-0.254,-93.689,-33.936,-11.597
-0.004,1.293,-0.325,-81.299,-32.410,9.216
-0.029,1.286,-0.344,-65.674,-24.109,21.606
-0.052,1.212,-0.288,-45.227,-11.292,25.574
-0.053,1.159,-0.207,-25.269,3.906,22.278
-0.029,1.089,-0.129,-5.798,17.456,16.296
0.001,1.028,-0.036,12.207,25.757,10.071
0.018,0.985,0.046,25.085,28.625,4.456
0.029,0.944,0.097,32.532,25.940,1.648
-0.004,0.916,0.125,34.302,19.653,2.502
-0.015,0.937,0.122,30.457,12.207,5.981
-0.019,0.953,0.093,23.865,4.028,8.911
-0.057,0.933,0.055,16.663,-3.723,10.925
-0.091,0.919,0.017,5.981,-8.606,13.062
-0.114,0.913,-0.020,-7.080,-9.460,15.320
-0.135,0.908,-0.066,-19.958,-7.263,16.418
-0.141,0.936,-0.080,-30.823,-3.723,16.174
-0.138,0.970,-0.088,-36.499,0.610,14.038
-0.123,0.982,-0.099,-34.546,4.822,10.803
-0.113,0.976,-0.115,-27.283,7.446,8.240
-0.131,0.965,-0.110,-20.142,8.362,7.385
-0.136,0.988,-0.110,-14.587,9.521,7.385
-0.130,1.003,-0.104,-8.911,9.888,6.226
-0.133,1.001,-0.101,-3.052,9.277,3.845
-0.139,0.995,-0.091,1.709,7.812,2.441
-0.136,0.988,-0.081,5.127,5.615,1.831
-0.123,0.962,-0.071,7.812,2.991,1.099
-0.128,0.932,-0.071,8.545,0.244,0.916
-0.131,0.911,-0.065,7.141,-1.709,1.770
-0.136,0.922,-0.068,4.517,-1.709,3.845
-0.128,0.923,-0.076,0.366,-0.549,4.761
-0.132,0.923,-0.082,-4.089,1.099,5.066
-0.153,0.914,-0.085,-9.155,2.625,5.371
-0.159,0.935,-0.069,-13.794,3.906,5.859
-0.157,0.955,-0.049,-15.198,5.615,5.798
-0.153,0.964,-0.045,-13.306,7.141,5.249
-0.138,0.970,-0.040,-10.193,7.263,4.150
-0.133,0.972,-0.026,-5.859,5.798,2.502
-0.140,0.960,-0.008,-1.770,4.150,0.549
-0.131,0.954,0.005,1.404,2.808,-1.160
-0.114,0.959,0.007,4.150,1.160,-2.075
-0.107,0.971,0.003,4.944,-1.038,-2.869
-0.100,0.985,-0.008,3.357,-2.625,-2.991
-0.104,0.990,-0.020,1.221,-3.723,-2.197
-0.139,0.962,-0.031,-0.854,-4.578,-0.977
-0.152,0.965,-0.037,-2.502,-4.578,0.061
-0.137,0.963,-0.066,-0.977,-3.662,-0.732
-0.137,0.968,-0.081,1.831,-1.343,-2.441
-0.131,0.979,-0.095,-0.183,1.709,-2.197
-0.123,0.995,-0.084,-5.249,4.944,-0.366
-0.133,0.998,-0.063,-9.277,7.019,1.709
-0.134,0.977,-0.049,-11.169,8.606,3.052
-0.125,0.972,-0.032,-12.146,9.277,3.418
-0.112,0.977,-0.022,-13.306,9.155,2.991
-0.103,0.976,-0.012,-14.160,8.545,2.869
-0.089,0.973,-0.015,-15.625,7.324,4.089
-0.088,0.957,-0.015,-17.578,4.395,6.653
-0.106,0.927,-0.022,-19.226,0.000,9.705
-0.133,0.925,-0.037,-20.569,-5.249,12.634
-0.135,0.912,-0.078,-19.531,-8.728,12.634
-0.137,0.918,-0.114,-15.137,-11.169,11.169
-0.154,0.925,-0.128,-12.573,-11.841,8.240
-0.170,0.948,-0.138,-11.292,-8.911,7.019
-0.161,0.966,-0.143,-9.216,-4.456,6.409
-0.154,0.981,-0.150,-6.409,-1.831,4.944
-0.152,0.988,-0.156,-3.174,-0.488,2.747
-0.151,0.987,-0.156,-0.610,0.488,1.282
-0.159,0.993,-0.149,-0.916,2.625,1.526
-0.160,1.002,-0.140,-3.845,5.493,2.319
-0.148,1.008,-0.132,-6.165,7.874,2.625
-0.136,1.004,-0.131,-7.629,8.972,2.502
-0.133,1.000,-0.122,-7.629,8.423,2.319
-0.137,0.990,-0.123,-7.141,7.263,2.686
-0.126,0.982,-0.113,-5.981,7.019,3.662
-0.132,0.951,-0.117,-3.845,6.104,5.188
-0.142,0.930,-0.108,-1.831,4.761,7.019
-0.146,0.920,-0.104,-0.427,3.601,8.484
-0.147,0.913,-0.107,1.343,2.686,8.545
-0.152,0.918,-0.120,3.357,2.258,7.019
-0.151,0.928,-0.118,5.859,2.075,4.883
-0.158,0.933,-0.115,8.911,2.319,2.991
-0.162,0.947,-0.111,10.742,3.052,1.953
-0.150,0.954,-0.097,11.902,3.906,1.526
-0.152,0.945,-0.087,12.634,4.517,0.916
-0.143,0.929,-0.079,10.864,5.005,0.793
-0.141,0.917,-0.077,6.958,5.066,0.977
-0.140,0.904,-0.075,2.502,3.906,0.793
-0.141,0.894,-0.067,-0.916,1.831,0.244
-0.143,0.895,-0.064,-3.174,0.244,-0.549
-0.155,0.891,-0.067,-3.540,-0.977,-1.221
-0.164,0.898,-0.059,-2.808,-1.526,-1.343
-0.161,0.910,-0.064,-1.892,-1.526,-1.465
-0.156,0.919,-0.076,-0.977,-1.770,-2.258
-0.154,0.922,-0.087,0.061,-2.441,-3.662

2.746,0.441,0.566,-150.391,27.893,-193.176
3.302,1.150,0.655,-103.394,19.531,-178.162
3.639,2.105,0.796,-13.672,19.043,-182.617
3.547,2.978,0.879,113.342,11.292,-202.393
2.890,3.195,0.625,242.859,-12.146,-228.149
2.066,2.568,-0.106,291.260,-42.908,-234.253
1.897,3.102,-1.189,220.276,-89.539,-188.049
0.720,3.225,-1.464,137.817,-158.264,-101.013
-0.070,2.182,-1.794,-31.128,-138.611,-43.396
-0.212,2.608,-1.783,-249.756,-105.347,91.431
-0.290,2.655,-1.345,-405.273,-33.447,188.049
-0.197,2.172,-1.079,-404.358,49.927,209.412
0.112,1.458,-0.773,-289.795,108.398,180.359
0.273,0.798,-0.465,-143.555,123.474,130.798
0.286,0.299,-0.125,1.770,103.210,87.891
0.221,0.081,0.204,96.069,67.139,56.519
-0.095,0.204,0.590,152.710,40.222,31.006
-0.077,0.113,0.717,179.626,40.588,-3.967
0.004,0.049,0.733,171.143,37.720,-33.508
0.069,0.157,0.591,126.038,23.743,-52.551
0.053,0.344,0.428,58.838,2.930,-63.660
-0.018,0.658,0.225,-14.526,-14.648,-66.345
-0.007,0.950,-0.023,-74.341,-26.672,-59.204
-0.019,1.132,-0.254,-105.713,-32.776,-42.175
-0.081,1.181,-0.423,-115.234,-32.776,-21.667
-0.100,1.277,-0.507,-106.506,-27.222,-0.488
-0.094,1.282,-0.508,-74.951,-17.090,14.404
-0.091,1.186,-0.468,-30.640,-5.615,19.836
-0.104,1.051,-0.404,12.756,5.371,18.555
-0.107,0.948,-0.294,48.035,16.113,15.198
-0.119,0.894,-0.182,67.627,24.902,10.864
-0.113,0.847,-0.079,74.951,29.907,6.409
-0.120,0.826,0.009,73.730,30.640,2.197
-0.136,0.830,0.062,66.162,26.855,-1.709
-0.129,0.844,0.083,54.138,19.775,-4.639
-0.126,0.872,0.076,37.781,12.329,-6.104
-0.117,0.886,0.038,18.494,6.531,-5.432
-0.128,0.902,0.004,-0.183,1.587,-2.808
-0.131,0.930,-0.046,-16.418,-1.770,1.526
-0.126,0.929,-0.099,-27.222,-4.089,4.883
-0.135,0.938,-0.146,-32.166,-6.470,6.409
-0.161,0.943,-0.184,-31.738,-7.568,6.897
-0.188,0.969,-0.206,-26.489,-6.042,6.653
-0.177,0.993,-0.242,-17.822,-2.075,5.249
-0.156,0.989,-0.270,-7.141,1.648,2.502
-0.160,0.986,-0.270,0.671,4.333,0.061
-0.180,0.988,-0.248,4.700,7.690,-0.427
-0.176,1.017,-0.228,6.897,11.902,0.610
-0.157,1.029,-0.209,10.925,13.611,0.732
-0.146,1.026,-0.195,15.808,11.353,-0.366
-0.146,1.015,-0.177,19.470,7.324,-1.831
-0.143,0.979,-0.170,21.973,4.700,-2.258
-0.151,0.923,-0.137,21.729,3.845,-0.427
-0.181,0.895,-0.104,13.489,4.578,4.028
-0.173,0.906,-0.105,1.099,5.798,7.202
-0.160,0.912,-0.114,-6.958,5.066,6.592
-0.167,0.927,-0.129,-10.864,2.380,2.808
-0.187,0.933,-0.136,-11.902,0.366,-1.221
-0.204,0.951,-0.148,-11.841,0.610,-3.296
-0.203,0.987,-0.169,-10.620,2.380,-3.418
-0.198,1.005,-0.179,-7.568,3.479,-3.479
-0.193,1.000,-0.181,-3.662,3.906,-2.869
-0.191,1.004,-0.178,-2.869,5.188,-1.648
-0.188,1.008,-0.159,-4.700,7.690,-0.610
-0.182,1.004,-0.137,-7.385,11.047,-0.366
-0.168,0.991,-0.131,-8.972,14.771,-0.610
-0.151,0.958,-0.124,-9.033,16.602,0.183
-0.129,0.955,-0.115,-10.620,16.541,1.831
-0.133,0.969,-0.105,-11.292,13.306,3.418
-0.136,0.975,-0.102,-8.728,7.812,4.333
-0.151,0.960,-0.112,-3.235,2.075,4.761
-0.159,0.921,-0.140,1.099,-0.610,4.578
-0.168,0.906,-0.162,1.770,-1.160,4.395
-0.178,0.925,-0.175,-0.061,0.305,4.517
-0.173,0.945,-0.184,-1.831,3.357,4.395
-0.168,0.953,-0.188,-1.404,5.310,4.089
-0.159,0.946,-0.194,1.343,6.592,3.601
-0.162,0.920,-0.198,3.723,6.836,2.808
-0.174,0.905,-0.186,3.967,6.653,1.587
-0.179,0.903,-0.180,2.380,7.019,-0.061
-0.183,0.904,-0.174,2.380,8.179,-1.526
-0.176,0.920,-0.152,3.540,9.705,-1.587
-0.145,0.936,-0.142,3.479,9.949,-0.183
-0.142,0.942,-0.128,2.686,7.202,1.526
-0.146,0.922,-0.121,1.770,3.906,2.930
-0.156,0.899,-0.119,-0.244,1.648,3.906
-0.163,0.887,-0.124,-3.174,0.671,4.333
-0.172,0.875,-0.135,-5.432,0.183,4.028
-0.174,0.878,-0.154,-6.348,0.305,3.540
-0.174,0.902,-0.168,-6.348,0.793,2.625
-0.165,0.928,-0.180,-5.737,1.526,0.977
-0.165,0.944,-0.186,-3.662,1.892,-1.160
-0.168,0.950,-0.190,-1.282,1.709,-2.625
-0.173,0.947,-0.194,0.061,1.892,-3.418
-0.182,0.956,-0.192,0.610,2.625,-3.662
-0.182,0.970,-0.193,1.099,4.272,-3.662
-0.177,0.979,-0.191,2.319,6.042,-3.357
-0.167,0.984,-0.193,4.211,7.385,-3.174
-0.164,0.973,-0.193,6.348,8.179,-3.113
-0.157,0.974,-0.188,7.324,8.423,-3.479
-0.145,0.959,-0.184,7.629,9.094,-2.930
-0.145,0.958,-0.169,6.470,9.338,-1.099
-0.137,0.965,-0.154,4.333,9.705,0.732
-0.140,0.961,-0.143,2.502,9.399,1.892
-0.147,0.954,-0.138,0.427,8.911,2.380
-0.150,0.953,-0.142,-0.977,8.240,2.625
-0.153,0.957,-0.146,-1.953,7.629,2.319
-0.157,0.977,-0.146,-2.441,7.568,1.648
-0.143,0.991,-0.146,-1.465,8.484,0.854
-0.136,1.000,-0.145,0.732,9.338,0.427
-0.133,1.011,-0.144,2.197,10.254,1.160
-0.129,1.020,-0.137,2.930,10.803,3.174
-0.136,1.021,-0.130,2.808,11.047,5.676
-0.133,1.026,-0.123,2.014,11.108,7.996
-0.136,1.012,-0.122,1.038,11.353,9.888
-0.142,0.985,-0.124,0.366,10.925,11.719
-0.138,0.961,-0.129,-0.916,10.254,13.367
-0.150,0.937,-0.134,-3.418,8.972,14.587
-0.166,0.925,-0.137,-6.958,8.362,15.259

2.573,0.845,0.330,-138.672,49.805,-153.625
3.002,1.332,0.255,-90.759,32.104,-172.485
3.370,1.989,0.094,-4.456,11.597,-206.604
3.322,2.707,-0.108,103.577,-17.273,-251.526
2.702,3.034,-0.437,212.708,-51.025,-298.401
2.321,3.363,-1.094,270.752,-113.647,-299.622
1.647,4.000,-1.698,270.996,-190.979,-264.709
0.322,2.577,-1.979,206.543,-206.665,-202.209
-0.487,1.909,-2.217,-0.549,-186.951,-21.545
-0.451,2.499,-1.941,-265.747,-107.483,187.012
-0.340,2.264,-1.452,-441.772,14.771,281.982
-0.093,1.528,-1.040,-475.708,109.070,257.996
0.178,0.831,-0.572,-387.634,149.353,193.542
0.207,0.598,-0.162,-220.398,148.560,128.174
0.247,0.532,0.078,-26.978,119.324,67.139
0.082,0.611,0.402,147.034,78.430,7.446
0.044,0.485,0.486,267.517,45.471,-44.373
0.053,0.221,0.433,325.256,16.174,-74.402
0.049,0.310,0.461,309.875,-3.906,-79.346
0.031,0.516,0.434,232.971,-13.611,-71.594
0.022,0.746,0.300,129.395,-20.142,-57.800
-0.015,0.923,0.098,29.541,-25.024,-38.513
-0.025,1.101,-0.067,-48.523,-28.442,-15.259
-0.048,1.234,-0.215,-97.168,-30.823,5.249
-0.071,1.276,-0.319,-109.436,-30.090,21.057
-0.094,1.200,-0.382,-93.567,-26.184,32.227
-0.126,1.103,-0.415,-64.331,-20.264,39.124
-0.145,1.033,-0.398,-30.457,-11.230,38.757
-0.140,0.982,-0.352,4.395,-2.197,31.433
-0.132,0.912,-0.278,36.072,5.920,19.897
-0.117,0.891,-0.173,58.777,13.489,8.179
-0.103,0.886,-0.088,71.350,19.287,1.160
-0.093,0.861,-0.041,75.745,22.034,-0.671
-0.090,0.828,-0.025,71.472,21.484,0.244
-0.097,0.809,-0.016,57.312,17.456,1.770
-0.110,0.809,0.000,36.621,11.597,2.258
-0.123,0.837,0.005,13.550,6.042,2.075
-0.131,0.880,-0.004,-5.737,0.916,2.625
-0.142,0.888,-0.040,-18.555,-2.502,4.639
-0.158,0.890,-0.077,-25.757,-5.676,7.996
-0.160,0.912,-0.110,-28.137,-8.667,10.925
-0.161,0.912,-0.147,-25.452,-10.193,10.620
-0.176,0.911,-0.178,-19.165,-10.376,9.033
-0.183,0.927,-0.198,-11.841,-9.155,7.507
-0.182,0.947,-0.208,-4.272,-7.446,5.737
-0.178,0.943,-0.217,2.686,-5.737,3.052
-0.192,0.931,-0.211,6.104,-4.517,0.366
-0.201,0.934,-0.197,5.676,-2.686,-1.160
-0.192,0.938,-0.204,3.784,-0.427,-1.160
-0.175,0.935,-0.204,1.404,1.038,0.244
-0.162,0.924,-0.185,-1.343,-1.160,2.930
-0.169,0.914,-0.169,-4.700,-5.249,5.249
-0.173,0.907,-0.156,-9.766,-9.033,5.737
-0.182,0.882,-0.160,-14.954,-11.597,3.967
-0.185,0.871,-0.160,-18.372,-12.878,1.221
-0.186,0.878,-0.167,-19.836,-13.489,-1.099
-0.193,0.880,-0.175,-19.165,-12.939,-2.136
-0.193,0.888,-0.192,-19.165,-11.169,-2.075
-0.192,0.907,-0.200,-20.325,-9.155,-2.197
-0.184,0.917,-0.199,-20.142,-8.118,-3.479
-0.187,0.912,-0.192,-18.616,-7.690,-4.517
-0.207,0.909,-0.193,-16.052,-6.897,-4.883
-0.199,0.930,-0.198,-12.390,-4.639,-4.761
-0.196,0.936,-0.198,-7.629,-1.770,-4.578
-0.183,0.946,-0.198,-3.540,0.916,-5.249
-0.172,0.953,-0.195,-0.488,2.197,-6.042
-0.165,0.953,-0.183,2.014,2.075,-6.836
-0.173,0.970,-0.162,7.690,-2.136,-5.981
-0.181,0.975,-0.162,9.827,-3.296,-4.517
-0.173,0.973,-0.179,9.460,-3.357,-3.174
-0.171,0.970,-0.191,8.118,-2.686,-2.075
-0.177,0.968,-0.195,5.676,-1.892,-1.343
-0.177,0.963,-0.192,2.686,-0.793,-0.732
-0.172,0.975,-0.182,1.099,-0.854,0.183
-0.168,0.985,-0.181,1.160,-1.343,0.916
-0.171,0.979,-0.189,3.052,-2.197,1.709
-0.179,0.972,-0.199,5.554,-2.258,2.380
-0.190,0.964,-0.212,7.324,-1.709,2.869
-0.190,0.960,-0.222,7.874,-0.244,2.625
-0.183,0.958,-0.226,7.202,1.770,1.709
-0.180,0.953,-0.215,5.737,3.235,0.854
-0.168,0.964,-0.199,4.089,4.089,0.427
-0.154,0.970,-0.186,3.906,3.479,0.488
-0.155,0.954,-0.182,5.615,1.282,1.221
-0.162,0.937,-0.186,6.592,-0.366,2.319
-0.174,0.921,-0.195,5.798,-0.977,3.174
-0.183,0.921,-0.202,3.784,-0.732,3.662
-0.198,0.935,-0.199,1.099,-0.122,3.662
-0.198,0.943,-0.192,-0.427,1.282,2.808
-0.189,0.961,-0.190,-0.244,2.136,1.587
-0.178,0.963,-0.195,2.319,1.709,0.610
-0.174,0.959,-0.204,6.531,0.732,0.183
-0.169,0.942,-0.217,10.010,0.183,0.549
-0.171,0.921,-0.224,11.169,0.305,0.916
-0.174,0.914,-0.223,8.789,1.221,1.099
-0.175,0.920,-0.216,5.066,2.625,1.099
-0.176,0.929,-0.211,1.526,4.456,0.671
-0.174,0.934,-0.206,-0.854,5.737,0.183
-0.173,0.934,-0.199,-2.197,6.226,-0.793
-0.172,0.935,-0.193,-3.113,6.348,-1.709
-0.169,0.937,-0.194,-3.113,6.104,-2.197
-0.161,0.942,-0.195,-2.197,5.554,-2.747
-0.158,0.952,-0.199,-0.854,4.578,-3.113
-0.167,0.956,-0.201,0.488,3.906,-3.235
-0.171,0.960,-0.202,0.916,4.150,-2.930
-0.165,0.964,-0.204,0.000,5.188,-2.197
-0.158,0.971,-0.194,-0.977,5.859,-1.343
-0.155,0.967,-0.186,-0.916,5.188,-0.427
-0.153,0.957,-0.182,-0.427,4.211,0.305
-0.154,0.946,-0.177,-0.427,3.601,1.038
-0.163,0.947,-0.172,-1.709,3.967,1.587
-0.160,0.948,-0.174,-2.502,4.639,1.526
-0.160,0.941,-0.176,-2.014,5.310,0.793
-0.169,0.950,-0.165,-0.427,5.005,-0.122
-0.171,0.968,-0.154,2.014,4.639,-1.038
-0.168,0.973,-0.146,6.348,4.333,-1.892
-0.161,0.978,-0.142,10.559,4.333,-2.075
-0.151,0.974,-0.142,12.634,3.784,-1.282
-0.146,0.972,-0.141,12.268,2.808,-0.122

3.139,0.401,0.724,-72.815,54.382,-319.275
3.715,1.102,0.789,-86.731,32.532,-286.743
3.902,2.134,0.772,-71.167,2.930,-258.301
3.622,3.287,0.694,-4.028,-28.076,-243.835
2.830,3.857,0.406,103.699,-62.073,-239.868
2.081,3.375,-0.487,167.725,-111.877,-232.910
1.733,3.622,-1.440,124.329,-179.565,-197.693
0.645,2.036,-1.829,65.308,-245.422,-99.915
-0.099,1.585,-2.313,-124.695,-241.577,25.757
-0.378,2.154,-2.234,-402.771,-176.514,159.058
-0.555,2.051,-1.703,-601.257,-68.237,180.542
-0.352,1.772,-1.295,-613.464,40.222,146.423
-0.051,1.490,-0.869,-444.397,112.488,97.046
0.297,1.134,-0.840,-200.989,155.701,34.302
0.328,0.664,-0.642,26.794,146.851,-7.507
0.259,0.305,-0.288,189.087,103.333,-11.719
0.022,0.302,0.017,281.067,76.660,1.892
-0.203,0.335,0.323,313.599,72.998,5.798
-0.138,0.117,0.467,292.664,80.078,-0.854
-0.056,0.169,0.500,224.182,77.148,-9.705
-0.017,0.332,0.443,140.747,62.073,-23.437
0.062,0.461,0.322,67.932,34.058,-40.527
0.051,0.675,0.166,4.883,-0.122,-53.345
-0.016,0.892,0.025,-40.649,-28.748,-54.932
-0.078,1.056,-0.143,-66.895,-44.312,-47.241
-0.091,1.137,-0.330,-80.688,-48.584,-35.278
-0.112,1.171,-0.497,-82.886,-45.105,-22.034
-0.135,1.231,-0.584,-71.655,-35.156,-10.376
-0.156,1.265,-0.605,-46.875,-19.775,-2.563
-0.172,1.239,-0.569,-13.245,-2.197,2.441
-0.181,1.176,-0.498,22.766,16.602,6.226
-0.157,1.130,-0.389,53.345,33.325,9.216
-0.152,1.082,-0.281,75.378,43.823,12.024
-0.151,1.026,-0.189,91.858,46.997,14.404
-0.165,0.969,-0.119,102.173,44.373,15.259
-0.159,0.909,-0.073,100.281,38.086,13.794
-0.175,0.854,-0.040,84.961,30.090,10.376
-0.191,0.854,-0.010,58.960,22.400,6.592
-0.183,0.871,-0.007,29.114,15.137,3.662
-0.188,0.920,-0.032,3.662,8.667,2.380
-0.191,0.968,-0.082,-12.695,2.808,3.479
-0.187,0.993,-0.143,-20.386,-2.197,5.188
-0.196,1.015,-0.209,-22.034,-5.493,6.775
-0.204,1.027,-0.262,-19.043,-6.592,7.935
-0.215,1.029,-0.309,-13.306,-5.493,7.751
-0.222,1.017,-0.336,-5.493,-2.991,7.141
-0.221,1.011,-0.355,1.953,0.610,6.287
-0.228,1.008,-0.348,8.240,4.944,5.432
-0.213,1.008,-0.330,12.451,8.484,4.822
-0.200,0.989,-0.318,15.198,10.254,3.723
-0.186,0.953,-0.299,16.296,10.254,2.869
-0.175,0.914,-0.270,15.015,8.179,4.028
-0.184,0.898,-0.256,11.536,5.127,6.409
-0.185,0.885,-0.254,6.775,2.686,8.423
-0.172,0.850,-0.270,2.380,1.099,8.789
-0.178,0.821,-0.281,-2.380,-0.793,7.690
-0.196,0.843,-0.273,-7.690,-2.625,6.409
-0.196,0.876,-0.276,-12.146,-2.319,5.432
-0.205,0.887,-0.288,-13.000,-1.953,4.517
-0.206,0.900,-0.291,-12.939,-1.038,3.967
-0.210,0.916,-0.292,-12.573,1.343,4.150
-0.221,0.913,-0.290,-10.315,3.052,4.150
-0.224,0.917,-0.280,-8.606,4.944,4.089
-0.219,0.922,-0.263,-7.202,7.263,4.028
-0.217,0.928,-0.251,-4.761,7.629,3.052
-0.215,0.931,-0.234,-1.282,7.019,1.587
-0.213,0.922,-0.217,3.235,5.920,-0.183
-0.221,0.890,-0.200,7.690,3.906,-1.709
-0.230,0.886,-0.178,9.399,2.930,-1.343
-0.231,0.894,-0.167,8.057,2.991,0.427
-0.227,0.901,-0.174,4.395,3.052,1.953
-0.215,0.899,-0.187,0.549,2.502,2.686
-0.217,0.901,-0.202,-2.380,1.221,2.869
-0.211,0.893,-0.216,-4.517,-0.061,2.747
-0.209,0.892,-0.236,-5.615,-0.977,2.991
-0.214,0.890,-0.252,-6.775,-1.465,3.235
-0.219,0.900,-0.261,-7.935,-0.916,3.357
-0.218,0.907,-0.268,-8.972,0.305,2.686
-0.221,0.900,-0.278,-9.216,1.587,1.343
-0.221,0.910,-0.279,-8.362,2.502,0.610
-0.213,0.917,-0.274,-6.592,3.906,1.343
-0.213,0.898,-0.278,-4.150,4.456,2.563
-0.208,0.883,-0.283,-2.747,4.456,3.479
-0.209,0.871,-0.281,-3.113,4.456,3.174
-0.211,0.875,-0.276,-4.028,3.967,1.404
-0.211,0.880,-0.270,-3.845,2.563,-1.282
-0.213,0.882,-0.259,-1.465,0.854,-3.235
-0.218,0.885,-0.256,1.892,-0.793,-3.784
-0.224,0.877,-0.263,5.371,-1.648,-3.479
-0.234,0.878,-0.267,6.836,-0.366,-2.380
-0.234,0.895,-0.271,5.554,2.136,-1.221
-0.230,0.923,-0.278,3.479,4.456,-0.793
-0.222,0.935,-0.278,3.235,6.226,-1.465
-0.218,0.936,-0.271,5.127,6.348,-2.075
-0.215,0.925,-0.257,7.202,5.981,-2.014
-0.220,0.918,-0.249,8.484,5.493,-1.038
-0.220,0.914,-0.241,8.667,5.554,0.183
-0.221,0.909,-0.236,9.094,5.249,0.977
-0.223,0.904,-0.238,9.155,4.883,0.854
-0.219,0.908,-0.244,9.277,4.700,-0.122
-0.214,0.907,-0.247,10.498,4.456,-1.526
-0.210,0.903,-0.252,11.047,4.333,-2.930
-0.206,0.903,-0.247,11.230,4.089,-3.479
-0.211,0.911,-0.238,11.292,3.418,-3.296
-0.216,0.913,-0.232,11.230,2.991,-2.869
-0.218,0.927,-0.220,10.498,3.906,-2.319
-0.213,0.937,-0.220,9.705,5.188,-1.648
-0.202,0.949,-0.221,10.864,5.432,-1.343
-0.194,0.941,-0.223,13.672,5.066,-1.465
-0.190,0.930,-0.222,15.442,4.211,-1.404
-0.182,0.920,-0.225,14.832,3.906,-1.160
-0.178,0.912,-0.230,12.878,4.089,-0.549
-0.188,0.905,-0.224,9.338,5.127,0.305
-0.200,0.897,-0.218,4.456,7.263,1.404
-0.204,0.884,-0.221,-0.366,8.850,2.747
-0.214,0.875,-0.223,-3.296,8.789,4.700
-0.229,0.877,-0.215,-4.822,8.484,6.104
-0.235,0.880,-0.212,-4.456,8.606,6.104
-0.236,0.881,-0.218,-3.174,9.705,4.761

3.593,0.995,0.448,-24.963,10.803,-256.165
3.939,1.828,0.474,19.409,-5.127,-244.141
3.902,2.645,0.408,88.745,-22.522,-245.850
3.368,3.232,0.176,164.368,-49.744,-255.249
2.339,3.110,-0.256,236.450,-81.360,-255.859
1.747,2.734,-1.104,223.450,-113.647,-231.750
1.260,3.481,-1.490,140.381,-157.471,-161.682
0.121,2.046,-1.798,51.392,-181.641,-63.965
-0.184,1.666,-2.098,-165.283,-128.357,53.833
-0.330,1.878,-1.745,-369.446,-64.758,172.302
-0.340,1.647,-1.270,-455.383,14.099,196.472
-0.005,1.141,-0.904,-385.498,83.069,163.696
0.154,0.713,-0.548,-214.722,111.755,114.014
0.088,0.504,-0.301,-16.663,113.770,58.655
0.026,0.389,0.058,152.222,101.257,11.780
-0.013,0.329,0.270,263.550,87.280,-21.362
-0.037,0.163,0.356,317.444,71.777,-42.114
-0.059,0.089,0.440,301.880,53.467,-53.589
-0.067,0.215,0.539,230.957,35.950,-60.547
-0.017,0.475,0.514,133.240,20.813,-64.575
-0.027,0.739,0.372,40.771,4.822,-64.453
-0.044,0.917,0.165,-28.748,-11.658,-58.228
-0.060,1.083,-0.042,-74.402,-27.649,-44.983
-0.093,1.229,-0.213,-96.619,-38.818,-27.832
-0.136,1.316,-0.345,-95.825,-43.335,-11.353
-0.170,1.335,-0.443,-77.942,-38.330,1.221
-0.178,1.306,-0.491,-50.659,-26.001,9.888
-0.190,1.264,-0.473,-20.386,-10.315,13.977
-0.164,1.222,-0.416,11.597,5.371,14.282
-0.139,1.136,-0.329,42.603,18.677,11.963
-0.119,1.073,-0.224,64.697,28.137,9.033
-0.107,1.007,-0.123,77.148,32.654,7.019
-0.101,0.970,-0.030,81.665,32.593,5.249
-0.098,0.933,0.024,78.735,27.588,3.235
-0.086,0.899,0.049,67.139,19.653,1.404
-0.098,0.885,0.056,47.607,9.888,0.122
-0.102,0.910,0.043,23.926,1.038,-0.305
-0.105,0.919,0.003,2.075,-5.371,-0.061
-0.127,0.932,-0.049,-14.221,-9.644,1.709
-0.141,0.971,-0.109,-25.635,-11.047,4.639
-0.167,1.001,-0.171,-30.029,-11.047,6.592
-0.180,1.015,-0.216,-27.649,-9.094,6.409
-0.199,1.028,-0.243,-21.423,-5.920,5.493
-0.214,1.051,-0.258,-12.451,-1.953,3.784
-0.205,1.063,-0.264,-1.465,1.831,2.014
-0.191,1.082,-0.261,9.766,5.066,0.610
-0.191,1.069,-0.237,18.860,7.385,0.061
-0.175,1.035,-0.212,23.254,10.376,0.427
-0.173,0.995,-0.191,22.705,11.536,2.441
-0.159,0.982,-0.175,17.822,10.559,5.310
-0.149,0.963,-0.170,11.780,7.690,7.568
-0.176,0.947,-0.168,6.409,3.784,8.728
-0.211,0.946,-0.150,2.258,1.038,9.583
-0.206,0.903,-0.145,2.747,0.854,9.644
-0.202,0.883,-0.150,7.874,0.671,8.728
-0.192,0.891,-0.155,11.108,1.526,8.240
-0.185,0.906,-0.171,8.362,3.113,7.385
-0.169,0.918,-0.175,2.930,4.700,6.409
-0.165,0.928,-0.184,-2.747,5.737,5.432
-0.179,0.924,-0.186,-6.409,7.080,5.493
-0.193,0.882,-0.176,-6.775,8.057,6.287
-0.199,0.870,-0.153,-4.761,8.545,6.531
-0.171,0.852,-0.141,-0.916,9.033,4.761
-0.180,0.823,-0.117,5.005,8.606,1.038
-0.174,0.824,-0.086,5.249,9.705,-0.671
-0.174,0.863,-0.078,-2.869,12.390,-0.183
-0.171,0.878,-0.082,-10.010,13.550,0.549
-0.154,0.873,-0.095,-14.160,13.306,0.793
-0.142,0.884,-0.107,-18.250,11.230,1.038
-0.136,0.898,-0.111,-21.729,7.568,1.343
-0.157,0.901,-0.114,-22.888,3.113,1.892
-0.193,0.919,-0.116,-22.156,-0.305,3.052
-0.198,0.917,-0.134,-18.799,-1.404,4.272
-0.193,0.911,-0.161,-13.306,-1.587,4.333
-0.184,0.920,-0.176,-9.521,-1.770,3.784
-0.187,0.939,-0.186,-7.996,-2.136,3.113
-0.199,0.932,-0.183,-6.042,-1.953,2.747
-0.203,0.929,-0.181,-3.784,-0.854,3.479
-0.201,0.927,-0.177,-1.709,0.366,3.601
-0.195,0.915,-0.175,0.732,0.610,2.258
-0.191,0.901,-0.166,2.441,0.671,0.610
-0.183,0.907,-0.153,2.319,0.671,0.244
-0.188,0.918,-0.149,1.038,0.854,1.160
-0.188,0.926,-0.146,0.671,1.038,1.831
-0.186,0.930,-0.148,2.075,0.427,1.587
-0.193,0.932,-0.153,4.333,0.122,0.488
-0.194,0.927,-0.166,6.348,-0.061,-0.549
-0.194,0.924,-0.172,6.836,0.000,-0.427
-0.198,0.923,-0.171,5.371,0.244,0.793
-0.204,0.941,-0.176,1.526,0.977,2.502
-0.205,0.966,-0.174,-1.953,2.136,4.089
-0.207,0.966,-0.175,-3.540,2.930,4.333
-0.214,0.957,-0.178,-5.066,3.418,3.601
-0.211,0.957,-0.179,-7.080,3.723,2.686
-0.209,0.955,-0.179,-7.751,3.723,2.014
-0.208,0.955,-0.179,-7.507,3.357,1.648
-0.205,0.972,-0.187,-6.470,2.502,1.221
-0.203,0.981,-0.197,-3.845,0.977,0.061
-0.206,0.976,-0.206,0.488,-0.610,-1.465
-0.206,0.970,-0.215,4.639,-1.831,-2.686
-0.201,0.963,-0.224,7.385,-2.014,-3.296
-0.194,0.950,-0.239,8.911,-0.916,-3.296
-0.196,0.954,-0.244,8.850,0.549,-2.808
-0.196,0.962,-0.246,7.812,2.075,-2.258
-0.192,0.957,-0.244,7.751,3.113,-2.747
-0.192,0.948,-0.238,7.507,3.784,-2.808
-0.191,0.943,-0.229,6.531,4.517,-2.197
-0.194,0.938,-0.219,5.493,4.639,-1.343
-0.193,0.932,-0.205,4.822,4.944,-0.854
-0.190,0.929,-0.195,3.845,5.554,-1.099
-0.182,0.926,-0.185,3.113,5.798,-1.770
-0.192,0.918,-0.175,2.380,5.310,-1.831
-0.195,0.931,-0.166,1.709,4.883,-0.854
-0.196,0.942,-0.167,2.014,4.578,0.000
-0.197,0.943,-0.175,3.967,4.272,-0.244
-0.199,0.938,-0.183,5.920,4.639,-0.366
-0.196,0.950,-0.186,5.920,5.981,0.366
-0.185,0.951,-0.189,5.371,7.996,0.793
-0.178,0.948,-0.185,4.456,9.644,0.610

3.360,0.630,0.335,-170.227,69.824,-212.097
3.849,1.488,0.325,-105.408,17.944,-187.073
3.953,2.377,0.264,10.010,-30.762,-185.730
3.529,3.044,0.082,150.696,-76.355,-200.317
2.563,2.995,-0.277,272.644,-109.314,-215.698
1.647,2.259,-0.751,304.810,-122.375,-204.895
1.325,2.063,-1.748,191.345,-120.789,-148.743
0.503,2.869,-1.633,48.340,-158.203,-12.207
-0.186,2.197,-2.000,-148.743,-136.353,62.073
-0.193,2.033,-1.926,-348.816,-64.026,136.658
-0.369,2.074,-1.559,-410.889,6.653,197.815
-0.255,1.632,-1.167,-375.610,82.153,185.364
0.139,1.108,-0.832,-265.869,122.864,136.414
0.046,0.685,-0.476,-99.426,119.995,85.266
0.104,0.336,-0.254,53.528,102.234,38.391
0.055,0.351,0.089,155.334,73.975,6.226
-0.042,0.263,0.332,216.309,48.706,-19.348
0.000,0.307,0.459,247.314,31.433,-37.415
0.048,0.353,0.483,242.798,20.508,-50.659
0.093,0.395,0.379,186.584,8.301,-60.486
0.023,0.587,0.236,91.492,-6.287,-60.364
0.005,0.831,0.055,-6.653,-20.081,-50.842
-0.032,1.048,-0.159,-83.130,-30.823,-34.058
-0.064,1.206,-0.356,-120.178,-35.889,-15.198
-0.116,1.253,-0.488,-118.530,-33.569,1.343
-0.156,1.254,-0.569,-88.684,-24.597,14.038
-0.190,1.224,-0.604,-43.518,-10.681,18.677
-0.181,1.134,-0.579,4.822,4.028,15.076
-0.176,1.058,-0.487,42.786,18.677,7.385
-0.139,1.030,-0.359,63.660,31.189,0.793
-0.094,1.017,-0.229,72.815,39.612,-3.113
-0.064,0.981,-0.122,75.867,40.833,-3.967
-0.050,0.928,-0.042,73.181,35.767,-2.563
-0.061,0.881,0.001,61.096,26.978,1.282
-0.073,0.862,0.014,39.917,17.883,6.165
-0.093,0.846,-0.003,14.587,9.521,9.277
-0.113,0.848,-0.039,-8.301,2.747,10.681
-0.137,0.859,-0.080,-24.292,-2.563,10.315
-0.143,0.866,-0.145,-31.616,-6.592,8.057
-0.162,0.865,-0.201,-31.433,-9.521,4.822
-0.185,0.893,-0.243,-27.039,-10.559,2.625
-0.192,0.925,-0.288,-20.203,-8.606,0.366
-0.195,0.952,-0.298,-11.475,-5.554,-2.136
-0.188,0.973,-0.293,-3.174,-1.404,-4.028
-0.192,0.975,-0.281,4.456,2.502,-5.127
-0.186,0.979,-0.264,9.888,5.737,-5.615
-0.180,0.967,-0.243,11.841,8.240,-5.737
-0.170,0.948,-0.219,13.184,9.277,-5.188
-0.154,0.924,-0.205,13.855,9.338,-3.418
-0.144,0.897,-0.204,12.634,7.446,-0.671
-0.143,0.872,-0.212,9.216,4.333,1.953
-0.150,0.861,-0.219,4.150,1.770,4.150
-0.166,0.856,-0.224,-1.343,0.122,5.249
-0.179,0.858,-0.224,-4.883,-0.427,5.066
-0.187,0.866,-0.239,-6.653,-0.671,3.296
-0.189,0.874,-0.238,-5.920,-1.526,0.122
-0.191,0.877,-0.228,-3.784,-2.441,-3.296
-0.185,0.878,-0.228,-1.038,-2.380,-5.554
-0.193,0.895,-0.206,2.136,-1.343,-6.104
-0.178,0.930,-0.206,3.296,0.244,-4.822
-0.178,0.953,-0.200,4.150,0.793,-3.113
-0.175,0.959,-0.185,5.127,0.122,-1.953
-0.176,0.955,-0.184,6.104,-0.549,-1.831
-0.176,0.930,-0.191,7.141,-1.587,-2.869
-0.164,0.908,-0.201,3.967,-2.197,-4.150
-0.163,0.927,-0.208,-3.357,-1.831,-4.578
-0.163,0.961,-0.200,-10.071,0.000,-3.357
-0.152,0.979,-0.211,-14.282,1.282,-0.122
-0.165,0.951,-0.217,-15.808,0.854,3.418
-0.158,0.942,-0.238,-15.930,-0.854,5.798
-0.153,0.935,-0.262,-14.465,-3.174,5.615
-0.159,0.925,-0.276,-12.451,-4.883,2.930
-0.176,0.924,-0.276,-12.085,-4.639,-0.244
-0.178,0.947,-0.280,-10.742,-1.404,-0.549
-0.164,0.971,-0.291,-8.179,2.380,1.099
-0.151,0.967,-0.297,-5.371,4.272,3.235
-0.189,0.912,-0.265,-2.686,3.357,5.249
-0.209,0.911,-0.236,-2.502,1.953,6.714
-0.198,0.931,-0.232,-1.160,1.099,5.493
-0.189,0.921,-0.241,2.991,-0.244,0.793
-0.187,0.911,-0.245,6.836,-1.526,-3.601
-0.189,0.933,-0.258,7.446,-1.831,-5.005
-0.182,0.947,-0.275,7.080,-1.099,-4.089
-0.179,0.963,-0.298,5.554,-0.671,-2.380
-0.178,0.969,-0.316,2.502,-0.488,-1.160
-0.187,0.965,-0.319,-0.122,-0.244,-0.366
-0.208,0.950,-0.308,-1.953,0.671,0.732
-0.199,0.962,-0.295,-2.197,2.869,2.197
-0.189,0.966,-0.285,0.000,4.700,3.418
-0.186,0.950,-0.280,3.540,5.920,4.028
-0.182,0.943,-0.272,5.859,6.287,4.150
-0.178,0.936,-0.260,6.104,6.409,3.540
-0.179,0.928,-0.251,6.042,5.737,2.319
-0.175,0.926,-0.258,6.226,4.578,1.038
-0.176,0.927,-0.255,6.653,2.869,-0.183
-0.172,0.920,-0.257,7.202,1.648,-0.977
-0.170,0.918,-0.259,6.470,1.099,-1.404
-0.167,0.925,-0.257,5.188,0.793,-1.343
-0.163,0.937,-0.256,4.211,0.549,-1.038
-0.167,0.945,-0.257,3.784,0.732,0.122
-0.170,0.942,-0.264,2.197,1.221,1.770
-0.164,0.943,-0.267,0.061,1.526,2.747
-0.161,0.935,-0.272,-1.465,1.587,2.747
-0.167,0.932,-0.273,-2.380,1.587,2.930
-0.172,0.931,-0.276,-2.075,1.526,3.296
-0.182,0.940,-0.276,-0.793,1.648,3.662
-0.184,0.949,-0.274,0.183,2.502,3.723
-0.181,0.955,-0.271,1.526,3.662,3.113
-0.170,0.955,-0.269,3.174,4.211,1.953
-0.165,0.949,-0.256,4.700,4.028,0.977
-0.167,0.952,-0.241,6.470,3.723,1.038
-0.161,0.948,-0.232,8.545,3.296,1.465
-0.161,0.936,-0.225,10.315,2.991,1.709
-0.157,0.931,-0.222,10.803,2.625,1.709
-0.154,0.921,-0.228,10.315,2.747,1.404
-0.157,0.910,-0.235,8.728,3.357,1.160
-0.164,0.916,-0.241,5.920,4.456,1.770
-0.165,0.938,-0.238,3.479,5.737,2.747
-0.165,0.948,-0.230,3.113,7.202,2.930

3.033,0.661,0.463,-71.777,8.179,-282.349
3.480,1.351,0.375,-49.377,-14.648,-262.695
3.590,2.025,0.299,-9.460,-33.997,-255.188
3.332,2.503,0.128,50.842,-55.115,-250.366
2.684,2.537,-0.194,114.319,-72.937,-238.220
2.092,2.432,-0.605,136.597,-91.125,-201.538
1.436,2.039,-1.333,93.262,-137.695,-145.325
1.118,2.803,-1.897,-7.507,-153.198,-81.421
0.361,2.424,-2.105,-103.271,-158.386,-5.798
-0.189,1.783,-2.172,-257.935,-118.652,60.242
-0.539,1.791,-1.857,-393.677,-37.598,133.362
-0.348,1.522,-1.521,-416.626,52.551,164.978
0.062,1.230,-1.070,-341.797,114.746,140.869
0.154,0.879,-0.682,-185.364,128.296,94.788
0.181,0.687,-0.357,-7.324,115.723,45.105
0.115,0.555,-0.042,148.193,91.614,7.019
0.085,0.423,0.128,248.718,64.636,-17.212
0.027,0.427,0.277,300.232,41.992,-26.306
0.013,0.393,0.362,306.763,29.419,-29.114
0.042,0.356,0.323,257.935,20.996,-32.349
0.021,0.465,0.215,164.124,10.559,-34.485
-0.003,0.685,0.094,54.932,0.732,-33.020
-0.006,0.885,-0.068,-41.016,-5.798,-27.893
-0.009,1.021,-0.246,-103.821,-10.620,-18.494
-0.025,1.115,-0.390,-129.272,-13.733,-5.859
-0.034,1.167,-0.497,-125.244,-13.855,5.554
-0.057,1.144,-0.554,-96.558,-11.475,12.756
-0.082,1.112,-0.568,-52.673,-6.897,14.954
-0.092,1.051,-0.549,-8.545,1.160,12.573
-0.115,0.962,-0.494,26.917,10.864,7.141
-0.125,0.968,-0.405,47.607,20.020,1.526
-0.103,0.970,-0.328,59.631,27.710,-3.174
-0.091,0.950,-0.269,67.017,30.945,-6.592
-0.085,0.942,-0.208,66.467,30.029,-7.812
-0.087,0.935,-0.165,57.190,26.489,-6.409
-0.109,0.923,-0.136,42.664,21.179,-3.906
-0.126,0.933,-0.133,25.085,15.808,-0.671
-0.127,0.934,-0.136,8.057,11.780,2.502
-0.125,0.952,-0.146,-4.150,8.423,4.517
-0.120,0.953,-0.171,-9.033,4.761,5.615
-0.121,0.952,-0.201,-7.568,0.854,5.798
-0.132,0.949,-0.229,-3.662,-2.380,5.371
-0.136,0.960,-0.259,1.282,-3.540,4.700
-0.149,0.966,-0.282,5.310,-3.235,3.601
-0.156,0.965,-0.298,6.897,-1.526,2.014
-0.160,0.958,-0.293,6.775,1.038,0.549
-0.155,0.965,-0.287,6.409,3.296,-0.061
-0.150,0.988,-0.279,6.592,4.822,0.244
-0.143,0.983,-0.268,8.118,5.737,0.000
-0.150,0.970,-0.264,9.827,6.042,-0.854
-0.143,0.939,-0.264,10.803,6.348,-1.526
-0.153,0.930,-0.252,10.071,7.385,-0.793
-0.140,0.950,-0.234,7.874,8.057,1.831
-0.130,0.966,-0.223,6.348,6.592,4.211
-0.130,0.953,-0.220,7.202,3.662,5.310
-0.131,0.945,-0.227,9.155,1.282,5.188
-0.134,0.929,-0.230,10.071,-0.488,3.540
-0.135,0.898,-0.233,7.751,-1.343,0.671
-0.138,0.889,-0.233,2.258,-1.038,-1.892
-0.146,0.915,-0.226,-2.380,1.221,-2.014
-0.144,0.934,-0.227,-5.310,5.127,-0.549
-0.130,0.950,-0.226,-6.775,8.118,0.366
-0.128,0.961,-0.223,-6.958,9.583,0.244
-0.133,0.953,-0.219,-5.859,10.376,-0.671
-0.141,0.950,-0.219,-5.005,11.963,-0.732
-0.128,0.948,-0.235,-5.554,14.404,0.549
-0.116,0.955,-0.233,-6.531,15.564,2.441
-0.111,0.965,-0.226,-5.432,14.038,4.639
-0.121,0.973,-0.213,-2.747,10.864,5.676
-0.125,0.975,-0.210,0.916,7.935,5.371
-0.126,0.950,-0.218,4.700,6.348,3.662
-0.143,0.927,-0.219,6.714,5.859,2.136
-0.146,0.920,-0.221,6.409,6.409,1.709
-0.143,0.933,-0.216,4.883,6.287,1.587
-0.141,0.939,-0.217,4.333,5.920,1.038
-0.143,0.931,-0.225,5.066,5.005,0.244
-0.139,0.927,-0.235,5.493,4.211,0.122
-0.141,0.938,-0.242,5.127,3.784,1.160
-0.148,0.936,-0.249,4.150,3.052,2.991
-0.154,0.934,-0.260,2.625,2.563,4.578
-0.161,0.923,-0.268,1.282,2.319,5.554
-0.171,0.912,-0.272,-0.366,2.625,5.798
-0.178,0.911,-0.271,-1.587,3.662,5.676
-0.176,0.921,-0.269,-1.953,4.578,5.005
-0.175,0.938,-0.259,-0.366,4.883,3.601
-0.177,0.933,-0.245,3.601,4.456,1.465
-0.174,0.904,-0.242,8.301,4.333,-0.549
-0.167,0.876,-0.235,11.047,3.540,-1.648
-0.156,0.868,-0.222,11.047,1.282,-2.625
-0.162,0.867,-0.207,8.972,-1.404,-3.174
-0.152,0.878,-0.209,6.531,-3.052,-3.845
-0.150,0.882,-0.219,5.798,-4.211,-4.700
-0.141,0.878,-0.233,6.348,-6.470,-5.493
-0.146,0.890,-0.242,7.202,-9.827,-5.493
-0.153,0.904,-0.255,7.202,-12.085,-4.517
-0.159,0.914,-0.271,6.042,-11.292,-3.479
-0.164,0.909,-0.284,4.272,-9.155,-2.319
-0.163,0.911,-0.295,1.770,-6.470,-1.404
-0.167,0.911,-0.294,-0.488,-3.601,-1.099
-0.170,0.904,-0.288,-2.319,-0.610,-1.038
-0.159,0.911,-0.278,-4.089,2.197,-0.916
-0.151,0.921,-0.265,-3.967,4.211,-1.221
-0.134,0.924,-0.259,-1.221,4.883,-1.953
-0.131,0.920,-0.261,3.235,3.357,-2.563
-0.130,0.922,-0.261,7.446,1.770,-2.991
-0.131,0.918,-0.264,10.559,0.427,-3.235
-0.129,0.913,-0.274,11.536,0.244,-3.296
-0.130,0.921,-0.269,10.742,0.854,-2.502
-0.130,0.944,-0.265,8.972,1.831,-1.282
-0.132,0.948,-0.266,6.897,3.357,-0.061
-0.133,0.953,-0.256,4.700,4.517,0.732
-0.137,0.959,-0.248,2.625,5.554,1.038
-0.138,0.966,-0.243,1.404,6.348,0.854
-0.141,0.959,-0.242,1.343,7.141,0.427
-0.146,0.974,-0.235,1.099,8.301,0.610
-0.135,0.992,-0.231,1.282,9.277,1.404
-0.130,0.998,-0.229,2.014,9.155,2.258
-0.139,1.003,-0.225,2.441,8.057,2.930
-0.144,1.013,-0.224,3.357,7.080,3.296

2.508,0.819,0.252,-98.328,-26.001,-239.502
2.789,1.199,0.159,-61.829,-25.269,-258.545
2.990,1.735,0.061,-18.372,-26.794,-283.691
2.914,2.303,-0.006,38.330,-34.241,-305.542
2.521,2.754,-0.067,103.088,-41.016,-309.998
2.081,2.767,-0.403,143.494,-45.227,-289.917
1.458,2.461,-0.762,162.964,-86.304,-216.492
1.312,2.494,-1.484,132.568,-132.446,-133.484
0.988,3.030,-1.692,83.313,-162.048,-51.758
0.179,2.203,-1.573,31.555,-170.288,25.818
-0.264,1.844,-1.609,-86.731,-132.019,109.985
-0.370,1.656,-1.406,-209.839,-64.453,175.232
-0.226,1.345,-1.125,-259.094,7.874,199.585
-0.059,1.046,-0.661,-231.689,69.275,179.565
0.126,0.800,-0.273,-136.658,106.689,137.634
0.187,0.624,-0.018,-18.921,117.065,86.975
0.059,0.591,0.206,92.285,106.262,37.842
0.186,0.404,0.274,167.664,86.609,-3.967
0.231,0.284,0.277,199.402,53.223,-30.579
0.123,0.270,0.308,195.312,16.541,-40.894
0.074,0.391,0.267,148.926,-7.324,-42.358
0.068,0.503,0.137,73.547,-19.714,-38.940
0.054,0.639,-0.044,-12.268,-25.391,-29.968
0.021,0.800,-0.225,-85.876,-26.184,-15.686
0.008,0.962,-0.351,-130.371,-24.597,-1.648
0.005,1.044,-0.425,-143.921,-21.667,7.141
-0.031,1.047,-0.459,-129.333,-16.663,11.963
-0.062,1.038,-0.455,-94.788,-9.521,15.076
-0.084,1.034,-0.413,-48.645,-2.808,14.587
-0.086,0.992,-0.367,0.854,3.723,8.850
-0.089,0.920,-0.302,44.434,8.728,0.244
-0.096,0.894,-0.252,71.411,12.024,-6.287
-0.084,0.883,-0.222,84.167,13.306,-9.827
-0.088,0.859,-0.183,86.792,13.306,-10.864
-0.082,0.844,-0.155,76.477,12.756,-9.155
-0.083,0.852,-0.133,52.856,12.329,-6.470
-0.080,0.879,-0.126,24.414,10.803,-3.662
-0.069,0.926,-0.132,0.305,8.667,-1.038
-0.080,0.957,-0.143,-13.611,5.859,1.038
-0.091,0.950,-0.166,-19.470,2.991,2.502
-0.103,0.940,-0.193,-20.813,0.916,3.601
-0.101,0.950,-0.229,-19.409,-1.404,3.845
-0.098,0.950,-0.243,-15.381,-2.747,2.319
-0.109,0.973,-0.258,-10.803,-4.883,0.610
-0.114,0.997,-0.274,-6.226,-5.920,-0.854
-0.118,1.007,-0.296,-1.587,-6.042,-2.075
-0.117,1.005,-0.315,2.808,-5.005,-2.686
-0.118,1.010,-0.332,5.005,-2.502,-2.014
-0.116,1.002,-0.332,4.028,0.000,-0.916
-0.114,1.012,-0.314,0.549,1.892,0.061
-0.120,1.024,-0.292,-2.808,2.197,0.183
-0.123,1.030,-0.278,-4.272,2.197,-0.183
-0.110,1.023,-0.275,-3.845,2.441,-0.488
-0.103,1.000,-0.281,-3.296,2.563,-1.099
-0.103,0.995,-0.276,-4.395,2.625,-0.549
-0.098,0.994,-0.274,-7.751,3.296,1.526
-0.096,1.004,-0.271,-11.780,3.723,3.845
-0.101,1.006,-0.260,-13.855,3.113,5.249
-0.114,1.006,-0.250,-13.062,2.197,5.066
-0.121,0.994,-0.247,-9.949,1.099,3.845
-0.120,0.971,-0.252,-5.371,0.549,1.892
-0.124,0.966,-0.247,-0.793,1.526,0.671
-0.129,0.967,-0.238,2.014,3.296,1.221
-0.123,0.983,-0.236,2.747,5.066,3.113
-0.119,0.990,-0.235,1.465,6.104,4.333
-0.117,1.000,-0.228,-0.061,6.409,3.906
-0.110,0.998,-0.218,-0.793,6.714,2.502
-0.109,0.989,-0.205,-0.305,6.470,1.404
-0.109,0.974,-0.199,0.977,5.737,1.343
-0.104,0.967,-0.203,2.747,4.700,1.831
-0.105,0.947,-0.210,4.578,3.235,2.258
-0.105,0.933,-0.222,5.615,1.648,2.014
-0.107,0.938,-0.226,5.371,0.366,1.404
-0.110,0.952,-0.225,4.761,-0.671,0.488
-0.111,0.951,-0.224,5.188,-1.404,-0.549
-0.116,0.942,-0.232,6.775,-1.404,-1.099
-0.114,0.927,-0.234,8.484,-0.488,-0.488
-0.112,0.926,-0.240,8.728,1.526,1.099
-0.109,0.932,-0.252,5.249,3.784,2.625
-0.108,0.937,-0.250,1.831,4.883,2.991
-0.112,0.939,-0.247,0.061,4.761,2.441
-0.113,0.930,-0.249,0.854,4.089,1.953
-0.112,0.915,-0.260,2.869,3.296,2.136
-0.123,0.909,-0.260,3.845,4.395,3.113
-0.125,0.918,-0.259,2.136,6.165,4.944
-0.123,0.922,-0.252,0.122,7.568,6.409
-0.121,0.925,-0.241,-1.282,6.775,6.958
-0.123,0.931,-0.241,-1.709,5.615,6.714
-0.125,0.927,-0.246,0.000,3.906,5.859
-0.124,0.919,-0.252,2.869,2.258,3.906
-0.128,0.904,-0.256,4.700,1.099,1.526
-0.128,0.892,-0.258,4.639,0.671,-1.404
-0.134,0.895,-0.272,3.479,1.160,-3.662
-0.140,0.911,-0.252,3.113,3.174,-3.601
-0.127,0.941,-0.248,0.671,5.127,-1.282
-0.137,0.967,-0.254,-2.258,5.310,1.221
-0.132,0.969,-0.245,-2.319,4.333,2.136
-0.138,0.950,-0.249,-0.916,3.357,2.380
-0.140,0.937,-0.253,0.244,2.991,2.747
-0.143,0.926,-0.253,0.977,3.418,2.808
-0.141,0.917,-0.256,2.136,4.272,2.319
-0.135,0.917,-0.255,3.479,5.310,1.465
-0.127,0.907,-0.247,5.249,5.798,-0.183
-0.125,0.907,-0.246,6.226,5.615,-1.892
-0.125,0.917,-0.238,4.761,4.517,-2.441
-0.126,0.929,-0.229,2.197,2.747,-2.502
-0.126,0.935,-0.228,1.160,1.709,-2.319
-0.131,0.934,-0.234,1.221,1.526,-1.404
-0.129,0.938,-0.240,1.221,1.770,0.061
-0.124,0.936,-0.247,1.831,1.770,0.793
-0.124,0.927,-0.260,1.831,1.709,0.732
-0.130,0.935,-0.259,1.221,1.831,0.427
-0.130,0.953,-0.256,0.549,2.686,0.183
-0.130,0.970,-0.258,0.977,4.639,0.183
-0.125,0.968,-0.256,2.563,6.592,0.610
-0.117,0.968,-0.255,4.517,7.874,1.526
-0.122,0.967,-0.249,5.981,8.301,2.197
-0.122,0.961,-0.247,6.836,8.362,2.014
-0.123,0.953,-0.247,7.446,7.996,1.221

2.622,0.951,0.475,-164.612,-5.127,-193.420
2.818,1.719,0.446,-121.216,-20.813,-176.147
2.859,2.573,0.398,-33.752,-37.170,-172.485
2.577,3.182,0.333,102.051,-53.467,-182.800
2.101,3.231,0.158,240.173,-59.021,-201.538
1.731,2.601,-0.187,305.969,-57.373,-212.524
1.482,1.763,-0.630,260.925,-89.539,-168.457
1.148,1.440,-1.324,101.807,-155.823,-105.652
0.597,2.336,-1.855,-92.468,-203.613,-51.880
-0.055,1.966,-1.997,-250.549,-208.618,3.967
-0.385,1.762,-1.964,-400.513,-160.645,60.913
-0.596,1.901,-1.651,-491.943,-78.674,111.572
-0.505,1.747,-1.350,-489.380,7.874,112.732
-0.318,1.552,-1.047,-375.793,75.562,79.895
-0.170,1.436,-0.851,-186.584,113.525,43.884
0.002,1.178,-0.756,8.301,120.911,9.705
0.020,1.052,-0.569,161.987,108.459,-11.475
-0.008,0.825,-0.423,253.784,90.454,-18.738
-0.004,0.665,-0.259,281.982,76.416,-12.878
-0.035,0.632,-0.097,264.099,67.749,-1.038
-0.047,0.669,-0.003,213.928,63.293,5.493
-0.050,0.704,0.027,148.926,58.655,3.235
-0.042,0.707,0.047,83.252,49.622,-4.211
-0.042,0.769,0.042,22.339,35.278,-10.254
-0.053,0.879,0.012,-22.705,18.433,-11.841
-0.063,0.922,-0.040,-45.593,2.441,-9.399
-0.064,0.941,-0.115,-50.903,-9.766,-5.188
-0.093,0.923,-0.206,-45.837,-18.433,-1.099
-0.147,0.912,-0.278,-35.034,-21.729,1.709
-0.186,0.956,-0.334,-23.987,-19.775,2.441
-0.196,0.959,-0.368,-12.512,-13.794,0.061
-0.208,0.927,-0.372,-2.075,-5.859,-3.784
-0.217,0.925,-0.348,5.066,2.441,-6.226
-0.195,0.946,-0.322,9.521,9.888,-7.385
-0.176,0.960,-0.293,13.306,14.648,-7.568
-0.167,0.960,-0.261,15.869,16.357,-6.531
-0.165,0.954,-0.241,14.526,15.076,-4.089
-0.164,0.924,-0.227,10.925,12.451,-0.916
-0.179,0.899,-0.221,6.287,9.277,2.625
-0.179,0.894,-0.218,1.465,6.348,5.493
-0.190,0.872,-0.219,-0.854,3.418,6.653
-0.196,0.864,-0.227,-0.916,1.587,6.104
-0.207,0.875,-0.239,-0.732,1.160,4.272
-0.198,0.906,-0.257,0.977,1.160,1.343
-0.185,0.911,-0.274,5.432,1.038,-2.319
-0.185,0.928,-0.293,9.583,1.404,-4.089
-0.173,0.942,-0.315,10.193,2.014,-4.211
-0.157,0.942,-0.326,8.240,2.869,-3.784
-0.153,0.921,-0.329,4.456,3.296,-2.441
-0.165,0.904,-0.331,-0.366,2.502,-0.183
-0.173,0.891,-0.322,-5.859,1.404,1.587
-0.180,0.886,-0.318,-12.024,0.671,2.319
-0.186,0.896,-0.319,-17.517,0.366,2.258
-0.186,0.909,-0.313,-19.531,0.000,1.526
-0.173,0.923,-0.314,-17.822,-1.526,0.427
-0.167,0.916,-0.322,-13.000,-4.456,-0.854
-0.175,0.889,-0.334,-7.690,-7.141,-1.526
-0.188,0.865,-0.346,-4.883,-7.690,-1.221
-0.198,0.880,-0.347,-6.470,-5.249,-0.183
-0.203,0.882,-0.341,-8.850,-2.319,0.610
-0.202,0.893,-0.337,-10.498,0.061,0.244
-0.200,0.904,-0.324,-11.230,1.587,-0.732
-0.203,0.915,-0.317,-10.620,2.258,-1.709
-0.199,0.922,-0.311,-9.277,2.869,-2.502
-0.191,0.933,-0.305,-8.179,3.784,-2.686
-0.188,0.947,-0.294,-7.935,4.578,-1.831
-0.182,0.952,-0.287,-6.470,4.822,-1.038
-0.176,0.947,-0.284,-4.211,4.883,-0.793
-0.174,0.932,-0.288,-1.648,4.211,-1.221
-0.172,0.928,-0.294,0.427,3.601,-1.343
-0.168,0.922,-0.287,2.502,3.052,-1.160
-0.167,0.927,-0.278,3.906,1.526,-0.671
-0.165,0.923,-0.278,5.005,-0.183,-0.732
-0.165,0.909,-0.287,5.737,-1.831,-1.343
-0.162,0.890,-0.298,4.822,-3.418,-2.258
-0.178,0.883,-0.301,2.258,-4.089,-2.563
-0.189,0.897,-0.314,0.244,-3.845,-1.709
-0.196,0.899,-0.322,-0.122,-3.052,-0.610
-0.195,0.910,-0.330,-0.671,-1.953,0.244
-0.207,0.912,-0.337,-1.465,-0.916,0.916
-0.214,0.915,-0.330,-0.427,0.549,0.916
-0.216,0.922,-0.327,1.892,2.563,0.366
-0.209,0.926,-0.324,5.432,4.272,-0.916
-0.194,0.923,-0.317,10.010,4.944,-2.380
-0.188,0.915,-0.312,14.038,4.089,-2.991
-0.192,0.906,-0.312,16.724,3.540,-2.808
-0.194,0.904,-0.320,16.541,3.723,-1.648
-0.192,0.912,-0.324,13.489,3.845,-0.610
-0.201,0.916,-0.330,9.766,3.784,-0.183
-0.208,0.931,-0.333,6.348,4.028,-0.244
-0.211,0.939,-0.337,4.272,4.639,-0.061
-0.211,0.937,-0.339,3.601,5.615,0.122
-0.211,0.934,-0.338,4.150,6.348,0.916
-0.215,0.921,-0.328,4.883,7.263,1.892
-0.210,0.916,-0.318,4.333,8.667,2.869
-0.209,0.907,-0.300,2.930,9.277,3.235
-0.209,0.904,-0.287,2.319,8.789,2.686
-0.208,0.901,-0.274,3.418,7.507,1.709
-0.206,0.906,-0.265,5.920,5.615,0.977
-0.208,0.902,-0.264,9.216,3.906,0.671
-0.213,0.894,-0.269,11.963,2.808,0.488
-0.212,0.883,-0.273,12.817,2.380,0.366
-0.206,0.878,-0.280,11.536,2.502,0.427
-0.204,0.864,-0.291,8.118,2.625,0.549
-0.200,0.878,-0.297,3.479,2.502,0.244
-0.197,0.889,-0.296,-0.732,2.075,-0.122
-0.194,0.892,-0.295,-2.747,2.380,-0.244
-0.186,0.893,-0.294,-2.930,2.502,0.000
-0.188,0.887,-0.294,-1.953,2.258,0.305
-0.200,0.897,-0.290,-0.610,1.709,0.488
-0.205,0.897,-0.288,0.549,1.587,0.000
-0.202,0.898,-0.288,1.770,2.258,-0.977
-0.195,0.901,-0.284,2.319,3.357,-1.587
-0.193,0.902,-0.275,2.625,4.028,-1.892
-0.190,0.905,-0.265,2.380,3.906,-2.136
-0.185,0.914,-0.260,1.953,2.930,-2.014
