aX,aY,aZ,gX,gY,gZ
-0.055,-0.959,4.000,-328.674,430.603,25.696
4.000,3.262,3.534,-414.001,439.941,60.242
1.530,3.344,0.527,-124.146,30.823,91.492
-0.979,1.703,0.870,-201.599,-49.194,69.092
0.496,2.361,-0.722,18.372,-10.437,-26.550
0.792,2.057,-0.895,135.620,-18.494,-167.297
0.423,1.089,-0.440,159.180,-41.931,-233.887
-0.113,0.261,-0.158,82.764,-20.630,-156.555
-0.003,0.414,0.317,33.997,13.855,62.012
-0.004,0.599,0.554,45.166,14.648,177.063
-0.326,0.894,0.445,49.377,12.939,184.509
-0.418,0.858,0.290,35.522,7.507,100.281
-0.286,0.575,0.161,22.034,-0.610,12.207
-0.237,0.640,0.134,10.620,-5.737,-5.493
-0.193,0.757,0.174,-2.930,-8.118,-6.104
-0.133,0.873,0.247,-10.071,-8.728,-1.282
-0.104,0.948,0.295,-3.418,-12.207,-1.648
-0.100,0.993,0.282,5.615,-13.611,-10.498
-0.097,1.037,0.251,10.864,-12.146,-12.512
-0.070,1.091,0.228,16.663,-10.559,-12.451
-0.047,1.131,0.208,21.423,-9.155,-10.376
-0.044,1.120,0.215,27.405,-8.911,-7.263
-0.053,1.080,0.220,32.654,-9.094,-5.798
-0.081,1.013,0.226,37.354,-9.155,-5.859
-0.119,0.940,0.236,38.574,-8.118,-5.554
-0.150,0.881,0.244,35.583,-6.287,-4.456
-0.172,0.815,0.243,30.029,-4.456,-2.930
-0.168,0.794,0.247,24.658,-2.930,-1.404
-0.163,0.784,0.256,20.325,-1.465,-0.488
-0.152,0.783,0.261,16.541,-0.305,-0.183
-0.140,0.807,0.259,13.916,0.671,-0.244
-0.125,0.843,0.263,11.841,1.404,-0.977
-0.100,0.875,0.263,10.254,2.075,-1.587
-0.084,0.906,0.261,8.972,1.770,-1.892
-0.075,0.939,0.257,8.484,1.221,-1.648
-0.066,0.964,0.260,8.057,0.549,-1.892
-0.059,0.973,0.261,7.812,-0.122,-2.319
-0.062,0.973,0.263,7.080,-0.549,-2.258
-0.074,0.960,0.263,7.141,-1.221,-2.075
-0.086,0.938,0.261,6.897,-1.404,-1.953
-0.091,0.922,0.266,6.165,-1.404,-1.892
-0.096,0.904,0.270,5.249,-1.221,-1.892
-0.102,0.894,0.273,4.517,-0.854,-1.770
-0.106,0.884,0.274,3.967,-0.305,-1.526
-0.105,0.888,0.274,3.540,0.366,-1.099
-0.101,0.897,0.272,3.113,0.977,-0.732
-0.095,0.910,0.274,2.747,1.343,-0.916
-0.091,0.919,0.273,2.563,1.221,-1.404
-0.088,0.924,0.270,2.563,0.610,-1.831
-0.091,0.930,0.269,2.747,-0.183,-2.258
-0.096,0.929,0.276,3.052,-0.305,-2.319
-0.096,0.933,0.276,2.808,-0.366,-2.075
-0.103,0.926,0.276,2.747,-0.671,-2.136
-0.104,0.921,0.277,3.418,-1.160,-2.014
-0.105,0.918,0.279,4.150,-1.160,-1.648
-0.104,0.908,0.285,4.456,-1.404,-1.526
-0.108,0.900,0.291,3.784,-1.282,-1.282
-0.103,0.903,0.286,3.540,-1.038,-0.916
-0.098,0.909,0.281,3.418,-0.671,-0.671
-0.096,0.907,0.282,3.540,-0.488,-0.732
-0.095,0.914,0.273,3.845,-0.183,-0.610
-0.089,0.911,0.276,4.395,-0.183,-0.671
-0.081,0.911,0.284,3.967,-0.305,-0.854
-0.072,0.915,0.290,3.174,-0.854,-0.793
-0.077,0.912,0.290,2.625,-1.709,-0.977
-0.076,0.917,0.279,2.563,-2.258,-1.160
-0.081,0.910,0.281,2.502,-2.625,-1.282
-0.088,0.906,0.285,2.136,-2.686,-1.160
-0.087,0.903,0.288,1.709,-2.136,-0.916
-0.090,0.903,0.293,0.916,-1.526,-0.610
-0.095,0.899,0.296,0.122,-0.977,-0.610
-0.096,0.899,0.295,-0.183,-0.427,-0.610
-0.099,0.899,0.287,-0.244,-0.183,-0.427
-0.097,0.905,0.283,-0.366,-0.061,0.122
-0.094,0.911,0.278,-0.671,0.122,0.732
-0.093,0.912,0.274,-1.282,-0.244,1.343
-0.090,0.919,0.272,-2.014,-0.427,1.648
-0.088,0.922,0.276,-2.380,-0.549,1.709
-0.077,0.930,0.276,-2.502,-0.488,1.709
-0.075,0.931,0.277,-2.563,-0.732,1.587
-0.072,0.935,0.275,-2.563,-1.282,1.465
-0.074,0.926,0.279,-2.319,-1.648,1.099
-0.076,0.923,0.280,-2.014,-1.831,0.977
-0.078,0.920,0.277,-1.282,-1.404,1.038
-0.078,0.920,0.275,-0.610,-1.221,0.793
-0.079,0.921,0.276,0.061,-1.282,0.427
-0.083,0.916,0.277,0.427,-1.221,0.122
-0.084,0.915,0.276,0.427,-1.099,0.122
-0.083,0.916,0.276,0.671,-1.343,-0.122
-0.088,0.911,0.273,0.671,-1.404,-0.183
-0.086,0.915,0.274,0.305,-1.160,0.000
-0.082,0.922,0.277,-0.183,-0.732,0.061
-0.075,0.927,0.280,0.183,-0.610,-0.427
-0.074,0.932,0.284,0.488,-0.610,-1.038
-0.077,0.931,0.281,0.793,-0.854,-1.587
-0.084,0.922,0.279,0.977,-1.282,-1.953
-0.086,0.922,0.280,0.793,-1.587,-1.709
-0.084,0.923,0.277,0.732,-1.709,-1.343
-0.090,0.919,0.277,0.916,-1.892,-1.343
-0.094,0.911,0.277,0.977,-1.770,-1.282
-0.097,0.904,0.279,1.038,-1.343,-1.038
-0.094,0.907,0.280,0.488,-0.854,-0.916
-0.091,0.907,0.281,0.244,-0.916,-0.732
-0.087,0.916,0.277,-0.061,-0.977,-0.610
-0.079,0.925,0.277,-0.061,-1.221,-0.732
-0.082,0.926,0.274,-0.061,-1.587,-0.854
-0.082,0.927,0.275,0.366,-1.709,-0.854
-0.081,0.930,0.275,1.160,-1.526,-0.732
-0.082,0.924,0.275,1.648,-1.343,-0.793
-0.088,0.916,0.275,1.892,-1.465,-0.854
-0.091,0.914,0.278,2.014,-1.648,-0.732
-0.089,0.913,0.275,2.014,-1.709,-0.549
-0.088,0.916,0.276,2.014,-1.770,-0.488
-0.090,0.912,0.273,1.892,-1.709,-0.732
-0.090,0.917,0.272,1.404,-1.587,-0.671
-0.088,0.921,0.274,1.099,-1.709,-0.549
-0.093,0.920,0.275,1.465,-1.953,-0.366
-0.092,0.914,0.278,1.465,-2.014,-0.122
-0.093,0.913,0.278,1.587,-1.953,0.000

4.000,-0.719,4.000,-716.431,527.466,91.248
2.837,4.000,0.061,-395.935,248.779,242.126
-0.774,2.701,1.489,-275.391,-166.443,264.038
0.021,2.181,0.311,-125.610,-66.162,172.363
1.055,2.461,-1.626,159.241,54.810,1.953
0.676,2.358,-1.053,216.309,-23.132,-166.138
0.112,1.484,0.778,226.624,-103.394,-294.189
0.022,1.234,-0.066,220.032,-7.690,-345.886
0.266,-0.293,0.431,149.109,17.822,-324.219
-0.337,0.009,0.410,4.761,50.964,-87.219
-0.233,0.302,0.422,-54.810,69.458,148.193
-0.301,0.676,0.287,-25.818,47.241,249.329
-0.400,0.932,0.069,-10.010,23.376,228.333
-0.396,0.969,-0.025,-6.531,0.305,141.113
-0.328,0.795,0.057,-1.282,-10.681,57.983
-0.240,0.703,0.178,3.296,-13.062,6.409
-0.184,0.767,0.278,8.545,-14.709,-12.634
-0.132,0.884,0.373,15.625,-18.311,-18.616
-0.072,0.960,0.384,17.883,-19.775,-20.020
-0.052,0.965,0.357,18.982,-20.691,-14.404
-0.019,1.037,0.313,22.217,-19.958,-3.906
0.024,1.086,0.277,19.043,-14.771,-0.122
0.034,1.103,0.258,10.986,-6.775,-3.479
0.028,1.112,0.257,6.836,-0.854,-9.216
0.011,0.992,0.258,7.019,1.282,-12.817
-0.020,0.982,0.259,14.771,0.671,-7.080
-0.063,0.924,0.261,21.484,-1.038,-2.869
-0.087,0.866,0.268,25.085,-2.258,-1.282
-0.104,0.829,0.274,25.940,-2.319,-0.610
-0.112,0.797,0.283,24.292,-1.465,-0.488
-0.121,0.787,0.288,20.935,-0.244,0.122
-0.111,0.793,0.294,16.235,1.282,1.160
-0.092,0.823,0.299,11.169,3.418,1.282
-0.078,0.856,0.302,6.531,4.517,0.916
-0.059,0.897,0.298,3.723,4.761,0.183
-0.051,0.924,0.301,2.930,4.517,-0.488
-0.046,0.944,0.295,2.808,4.150,-0.549
-0.031,0.970,0.287,3.052,4.089,-0.244
-0.026,0.977,0.284,3.479,3.662,-0.244
-0.042,0.970,0.281,3.906,2.991,-0.305
-0.046,0.956,0.278,4.089,2.136,-0.488
-0.051,0.940,0.277,3.967,1.343,-1.038
-0.061,0.924,0.279,3.235,0.427,-1.709
-0.068,0.914,0.273,2.319,-0.244,-1.831
-0.080,0.888,0.275,1.648,-0.671,-1.282
-0.082,0.881,0.280,0.671,-0.549,-0.732
-0.077,0.882,0.293,0.183,-0.122,0.183
-0.073,0.890,0.297,0.183,0.610,0.610
-0.054,0.914,0.286,0.549,0.977,0.244
-0.055,0.917,0.283,1.526,0.427,-0.305
-0.058,0.923,0.287,2.319,0.183,-0.244
-0.058,0.920,0.299,2.563,0.183,0.122
-0.068,0.907,0.312,2.319,0.488,0.427
-0.076,0.893,0.318,1.953,0.793,0.977
-0.083,0.879,0.322,1.953,1.465,1.343
-0.079,0.892,0.310,1.892,2.075,1.282
-0.064,0.922,0.280,2.319,1.648,0.366
-0.064,0.930,0.269,3.723,0.305,-1.038
-0.067,0.931,0.282,4.395,-0.183,-1.465
-0.066,0.926,0.300,4.150,-0.244,-0.977
-0.070,0.909,0.307,3.845,0.061,-0.061
-0.067,0.896,0.314,2.930,0.732,0.549
-0.066,0.888,0.317,1.648,1.343,0.793
-0.062,0.880,0.313,0.610,1.404,0.610
-0.062,0.883,0.303,0.366,0.793,0.122
-0.071,0.892,0.282,0.122,0.244,-0.427
-0.063,0.916,0.260,0.366,-0.122,-1.160
-0.041,0.947,0.244,0.793,-0.610,-1.953
-0.036,0.960,0.257,0.916,-1.221,-2.747
-0.028,0.977,0.274,-0.061,-0.549,-2.686
-0.023,0.973,0.293,-0.793,-0.122,-2.380
-0.037,0.953,0.305,-0.305,-0.183,-1.770
-0.047,0.935,0.304,1.160,-0.305,-1.160
-0.048,0.922,0.297,2.991,-0.305,-1.038
-0.054,0.913,0.290,4.578,-0.061,-1.343
-0.063,0.901,0.288,5.127,0.122,-1.465
-0.074,0.892,0.291,4.578,0.366,-1.160
-0.077,0.891,0.295,3.418,0.793,-0.854
-0.075,0.895,0.293,2.014,0.977,-0.549
-0.071,0.899,0.290,0.793,0.916,-0.671
-0.065,0.910,0.286,0.366,0.916,-0.916
-0.055,0.924,0.287,0.549,0.854,-1.160
-0.051,0.931,0.289,0.793,0.610,-1.465
-0.053,0.927,0.295,0.977,0.427,-1.587
-0.048,0.923,0.292,0.854,0.549,-1.526
-0.048,0.922,0.290,0.793,0.305,-1.282
-0.055,0.914,0.288,0.916,0.061,-1.343
-0.053,0.912,0.289,1.099,-0.183,-1.343
-0.046,0.915,0.290,1.404,-0.366,-1.404
-0.047,0.915,0.293,1.831,-0.610,-1.770
-0.052,0.908,0.298,2.075,-0.488,-1.892
-0.056,0.904,0.302,2.197,0.061,-1.709
-0.054,0.904,0.300,2.136,1.038,-1.404
-0.058,0.903,0.299,2.197,1.587,-0.977
-0.056,0.905,0.297,2.930,2.136,-0.366
-0.054,0.905,0.297,3.357,2.380,-0.061
-0.048,0.915,0.292,3.296,2.197,-0.122
-0.048,0.922,0.291,3.113,1.526,-0.488
-0.052,0.921,0.288,2.991,0.854,-0.977
-0.058,0.916,0.293,2.930,0.427,-0.977
-0.060,0.907,0.297,2.136,0.854,-0.854
-0.057,0.910,0.300,1.160,1.221,-0.610
-0.050,0.920,0.297,0.854,1.099,-0.549
-0.054,0.915,0.290,0.916,0.488,-0.793
-0.056,0.914,0.292,1.404,-0.183,-0.854
-0.055,0.909,0.298,1.831,-0.183,-0.854
-0.060,0.900,0.304,1.343,-0.061,-0.427
-0.059,0.904,0.304,0.488,0.366,-0.122
-0.052,0.911,0.300,0.427,0.366,0.000
-0.051,0.915,0.295,0.854,-0.122,-0.061
-0.047,0.918,0.298,1.465,-0.549,-0.183
-0.049,0.915,0.301,1.709,-0.610,-0.488
-0.052,0.911,0.307,2.014,-0.366,-0.244
-0.060,0.899,0.311,1.709,-0.122,0.244
-0.056,0.906,0.303,1.038,0.244,0.366
-0.039,0.930,0.291,1.465,0.183,0.305
-0.040,0.929,0.286,2.075,-0.488,-0.427
-0.041,0.932,0.294,2.686,-1.099,-0.793
-0.046,0.919,0.308,3.052,-1.160,-0.916

2.696,3.711,0.993,-539.856,287.598,191.589
-0.503,3.095,1.309,-296.021,-153.320,301.392
-0.036,2.124,0.597,-148.193,-110.657,235.840
1.126,2.198,-1.162,96.313,37.415,97.900
0.795,2.123,-1.313,189.819,13.672,-49.316
0.310,1.786,1.080,229.370,-80.688,-155.151
0.148,1.652,0.010,267.395,-24.109,-248.657
0.023,0.536,0.271,190.491,19.897,-297.363
0.172,0.062,0.374,119.507,19.287,-230.896
-0.302,0.235,0.414,12.939,31.250,-68.848
-0.284,0.182,0.336,-79.651,54.810,94.299
-0.223,0.602,0.165,-69.580,48.218,191.650
-0.361,0.964,-0.016,-46.204,29.785,195.129
-0.321,0.898,-0.040,-27.588,5.981,119.446
-0.230,0.844,0.037,-14.404,-8.850,54.199
-0.164,0.774,0.188,-7.690,-17.212,12.817
-0.114,0.806,0.285,-2.197,-20.996,-8.057
-0.077,0.897,0.359,5.981,-25.696,-12.817
-0.035,0.951,0.380,11.475,-27.893,-14.648
-0.005,0.961,0.364,16.968,-27.161,-12.024
0.032,1.021,0.333,19.470,-22.827,-4.456
0.052,1.054,0.298,21.484,-17.456,-2.197
0.057,1.059,0.269,20.996,-11.597,-4.395
0.038,1.054,0.256,15.564,-5.737,-6.409
0.010,1.021,0.245,10.498,-0.061,-11.780
-0.010,0.967,0.247,6.042,3.845,-13.489
-0.035,0.943,0.257,7.690,3.845,-6.958
-0.050,0.911,0.262,11.719,1.892,-3.052
-0.070,0.877,0.268,15.686,0.488,-2.136
-0.088,0.845,0.267,18.250,-0.305,-3.174
-0.099,0.830,0.262,18.066,-0.427,-3.601
-0.100,0.823,0.261,15.076,-0.061,-2.930
-0.094,0.826,0.266,9.216,1.404,-1.831
-0.079,0.853,0.273,3.296,3.418,-0.610
-0.038,0.903,0.271,-0.427,4.700,0.183
-0.025,0.924,0.273,-1.282,4.639,0.244
-0.022,0.944,0.273,-1.160,4.089,0.671
-0.014,0.947,0.276,-0.610,3.723,1.282
-0.012,0.952,0.274,-0.732,3.845,1.953
-0.004,0.966,0.265,-0.305,3.723,1.892
0.005,0.975,0.241,0.488,2.747,0.793
-0.012,0.957,0.234,0.916,1.221,-0.427
-0.025,0.938,0.248,0.061,0.793,-0.488
-0.018,0.937,0.258,-1.282,0.916,0.061
-0.023,0.923,0.264,-1.831,0.427,0.366
-0.029,0.921,0.255,-1.770,-0.610,0.244
-0.026,0.920,0.257,-0.854,-1.770,0.122
-0.026,0.908,0.273,-0.366,-2.197,-0.305
-0.026,0.904,0.285,-0.549,-2.014,-0.305
-0.016,0.913,0.286,0.061,-1.709,-0.427
-0.014,0.925,0.277,0.671,-1.648,-0.732
-0.005,0.931,0.275,1.465,-2.014,-1.221
-0.014,0.925,0.279,1.831,-2.502,-1.465
-0.026,0.916,0.292,2.014,-2.258,-1.160
-0.027,0.908,0.295,2.319,-1.892,-0.793
-0.027,0.912,0.288,2.625,-1.404,-0.793
-0.029,0.925,0.261,3.357,-1.282,-1.282
-0.030,0.921,0.250,4.272,-1.709,-2.136
-0.034,0.917,0.258,3.540,-1.892,-1.953
-0.037,0.910,0.276,2.563,-2.136,-0.977
-0.039,0.896,0.287,1.404,-2.380,-0.183
-0.038,0.895,0.289,0.366,-2.258,0.305
-0.033,0.897,0.286,-0.488,-1.831,0.061
-0.030,0.905,0.281,-0.610,-1.282,-0.427
-0.020,0.920,0.277,0.061,-0.793,-1.038
0.010,0.957,0.260,1.953,-0.671,-1.770
0.006,0.962,0.251,3.296,-1.770,-3.235
-0.012,0.959,0.250,3.601,-2.502,-4.028
-0.011,0.956,0.260,3.540,-2.258,-3.906
-0.018,0.943,0.273,3.540,-2.014,-3.235
-0.029,0.924,0.283,3.235,-1.587,-2.563
-0.031,0.911,0.284,3.662,-1.160,-2.197
-0.032,0.904,0.277,3.906,-0.671,-2.136
-0.038,0.900,0.267,4.028,-0.854,-2.258
-0.041,0.899,0.259,3.967,-0.916,-2.197
-0.041,0.896,0.262,3.052,-0.366,-1.648
-0.042,0.893,0.274,1.343,0.305,-0.732
-0.043,0.889,0.283,-0.305,1.099,0.122
-0.040,0.894,0.283,-1.587,1.526,0.549
-0.014,0.929,0.263,-1.953,1.831,0.549
-0.000,0.947,0.250,-1.404,0.916,-0.610
-0.012,0.946,0.251,-1.099,-0.427,-1.770
-0.011,0.949,0.266,-0.427,-0.916,-1.648
-0.009,0.937,0.282,0.244,-0.427,-1.343
-0.014,0.923,0.287,0.427,0.916,-0.488
-0.011,0.928,0.278,0.671,2.075,-0.061
-0.000,0.938,0.265,1.343,2.136,-0.488
-0.010,0.930,0.259,2.502,1.648,-1.526
-0.016,0.925,0.264,3.296,1.160,-2.441
-0.024,0.915,0.273,3.357,1.221,-2.686
-0.036,0.904,0.285,2.502,2.014,-2.380
-0.038,0.905,0.282,1.587,3.052,-1.892
-0.018,0.922,0.261,1.526,3.479,-1.404
-0.013,0.921,0.254,1.709,2.563,-1.465
-0.023,0.925,0.260,1.343,1.587,-1.526
-0.014,0.928,0.266,1.160,1.221,-1.343
-0.012,0.939,0.271,1.038,0.977,-1.160
-0.010,0.939,0.276,1.221,0.793,-1.099
-0.006,0.933,0.279,1.892,0.549,-1.099
-0.015,0.920,0.277,2.380,0.122,-1.160
-0.016,0.920,0.274,2.563,0.305,-1.221
-0.018,0.917,0.275,2.747,0.732,-1.343
-0.021,0.926,0.267,3.418,0.793,-1.587
-0.009,0.929,0.264,4.456,0.610,-1.892
-0.023,0.911,0.275,4.456,0.000,-2.380
-0.030,0.903,0.287,3.357,0.000,-1.831
-0.025,0.903,0.287,2.502,0.366,-0.916
-0.028,0.902,0.278,2.319,0.183,-0.549
-0.029,0.899,0.271,2.197,0.122,-0.488
-0.028,0.906,0.266,1.770,0.061,-0.610
-0.028,0.914,0.267,1.221,0.122,-0.916
-0.014,0.928,0.269,0.610,0.305,-0.854
-0.004,0.942,0.275,0.183,0.061,-0.793
-0.007,0.938,0.284,0.061,-0.061,-0.793
-0.008,0.935,0.289,0.366,0.000,-0.732
-0.012,0.927,0.287,1.038,-0.061,-0.549
-0.016,0.924,0.282,1.465,0.183,-0.488
-0.012,0.931,0.274,1.953,0.000,-0.671
-0.008,0.928,0.274,2.808,-0.061,-0.916

4.000,-2.225,4.000,-580.322,513.611,56.458
2.580,3.917,0.125,-571.838,214.478,226.624
-0.625,1.884,1.380,-250.732,-256.531,280.945
-0.265,1.713,0.487,-79.224,-165.405,245.178
1.146,1.910,-1.069,142.944,-7.568,109.131
1.041,2.113,-1.211,201.477,-12.207,-72.266
0.540,1.574,0.569,172.302,-46.021,-179.565
0.471,1.533,0.124,133.057,53.101,-201.233
0.613,0.504,0.336,74.402,55.969,-197.449
-0.104,0.392,0.432,-35.400,60.486,-53.223
0.026,0.520,0.475,-42.847,59.937,110.718
-0.078,0.817,0.375,10.559,43.274,188.232
-0.288,0.779,0.245,12.817,33.264,162.842
-0.265,0.804,0.051,12.756,21.484,99.609
-0.263,0.745,0.017,20.142,1.892,37.598
-0.211,0.707,0.040,23.254,-5.920,0.305
-0.167,0.760,0.120,20.996,-9.644,-13.794
-0.114,0.798,0.220,13.550,-14.282,-18.188
-0.055,0.824,0.297,5.188,-18.860,-14.832
-0.031,0.927,0.346,-3.113,-23.254,-1.526
0.018,0.999,0.343,-8.362,-25.208,6.409
0.049,1.029,0.309,-10.437,-21.912,6.409
0.043,1.053,0.272,-10.010,-16.602,2.075
0.048,1.041,0.249,-7.019,-12.695,-2.014
0.058,1.055,0.251,-2.502,-9.216,-1.953
0.050,1.041,0.259,3.052,-6.836,-0.610
0.038,1.010,0.260,8.667,-5.981,-0.793
0.018,0.970,0.263,14.099,-5.920,-1.282
-0.001,0.929,0.262,17.456,-5.127,-1.587
-0.038,0.875,0.258,16.907,-1.587,-1.526
-0.049,0.850,0.260,14.282,-0.488,-1.404
-0.031,0.874,0.281,5.005,2.197,-1.282
-0.015,0.901,0.280,3.113,3.479,-1.343
0.006,0.931,0.282,2.502,4.822,-1.282
0.011,0.949,0.276,2.563,5.615,-1.404
0.016,0.960,0.270,3.357,6.226,-1.404
0.013,0.969,0.255,3.601,6.348,-1.099
0.007,0.966,0.238,3.662,5.798,-0.793
-0.004,0.950,0.235,3.784,4.517,-0.549
-0.012,0.937,0.243,3.113,3.601,0.061
-0.019,0.917,0.259,2.075,3.174,0.366
-0.012,0.914,0.258,1.282,2.686,0.488
-0.005,0.916,0.251,1.160,1.648,0.061
-0.007,0.913,0.253,0.916,0.427,-0.916
-0.004,0.918,0.257,0.793,0.000,-1.587
0.001,0.918,0.269,1.404,-0.183,-1.648
-0.005,0.917,0.278,2.441,0.122,-1.404
-0.012,0.913,0.276,2.380,0.916,-1.038
-0.001,0.917,0.268,1.648,1.282,-0.916
0.007,0.930,0.270,1.648,1.099,-1.160
0.009,0.931,0.272,1.892,-0.061,-1.831
0.007,0.933,0.274,2.319,-0.916,-2.502
0.004,0.934,0.272,2.441,-0.977,-2.625
0.000,0.932,0.271,2.625,-0.610,-2.869
-0.005,0.929,0.273,2.930,-0.366,-2.319
-0.006,0.921,0.277,3.601,-0.122,-1.648
0.000,0.916,0.281,3.174,0.000,-1.160
0.005,0.917,0.288,2.808,-0.122,-1.160
0.012,0.923,0.283,2.563,-0.549,-1.404
0.016,0.932,0.268,3.052,-1.099,-1.648
0.008,0.931,0.255,3.235,-2.014,-2.075
0.002,0.926,0.253,3.235,-2.502,-2.075
-0.004,0.915,0.265,3.113,-2.686,-1.831
-0.014,0.902,0.279,2.563,-2.258,-1.404
-0.017,0.906,0.278,1.709,-1.160,-0.854
0.001,0.922,0.260,1.282,-0.366,-0.854
-0.005,0.921,0.255,0.916,-0.732,-1.343
-0.016,0.921,0.263,0.244,-1.221,-1.343
-0.018,0.913,0.276,0.061,-1.343,-0.793
-0.021,0.901,0.282,-0.610,-1.221,0.061
-0.021,0.894,0.285,-1.648,-0.671,0.977
-0.024,0.888,0.286,-2.563,0.183,1.343
-0.026,0.898,0.273,-3.174,0.977,1.404
0.006,0.939,0.243,-2.258,1.160,1.282
0.024,0.960,0.240,-0.305,0.671,0.854
0.021,0.969,0.251,0.549,0.061,0.244
0.019,0.957,0.268,0.854,0.183,-0.122
0.018,0.945,0.279,0.916,0.793,0.366
0.011,0.929,0.281,1.221,1.221,0.916
0.004,0.911,0.280,1.282,1.526,0.854
-0.006,0.896,0.276,1.343,2.075,0.488
-0.021,0.884,0.268,1.343,2.319,0.183
0.001,0.910,0.244,0.854,2.136,-0.061
0.012,0.935,0.234,-0.061,0.610,-0.793
-0.001,0.943,0.243,-0.671,-0.854,-1.526
0.004,0.937,0.264,-0.122,-0.610,-1.587
0.011,0.932,0.280,0.305,0.305,-0.854
0.021,0.940,0.276,0.305,1.221,0.061
0.037,0.955,0.259,0.671,1.404,0.122
0.033,0.956,0.246,2.014,0.061,-1.160
0.016,0.943,0.249,3.357,-1.343,-2.380
0.007,0.928,0.262,4.578,-1.770,-2.625
-0.002,0.921,0.277,5.249,-0.977,-2.197
-0.013,0.906,0.284,5.188,0.244,-1.343
-0.010,0.900,0.279,4.700,1.221,-0.732
-0.014,0.902,0.271,3.723,1.648,-0.549
-0.021,0.901,0.266,2.991,1.465,-0.793
-0.016,0.906,0.268,2.380,1.160,-0.977
-0.013,0.916,0.271,1.709,0.732,-0.916
-0.006,0.924,0.273,1.282,0.366,-0.732
0.003,0.935,0.271,0.854,0.183,-0.549
0.006,0.938,0.274,0.854,-0.183,-0.366
0.011,0.942,0.273,1.343,-0.183,-0.244
0.009,0.935,0.275,2.197,-0.427,-0.427
0.002,0.926,0.276,2.930,-0.671,-0.610
-0.002,0.917,0.279,3.418,-0.732,-0.671
-0.011,0.903,0.282,3.540,-0.427,-0.427
-0.015,0.896,0.283,3.113,0.000,0.061
-0.016,0.902,0.276,2.991,0.366,0.732
-0.019,0.900,0.271,2.441,0.549,1.160
-0.018,0.904,0.275,1.892,0.854,1.587
-0.002,0.918,0.273,1.587,0.977,1.770
0.007,0.929,0.271,1.282,0.610,1.526
0.011,0.939,0.271,1.282,0.305,0.977
0.026,0.956,0.271,1.526,0.122,0.610
0.029,0.959,0.271,2.136,-0.488,-0.122
0.021,0.953,0.275,2.930,-1.160,-1.038
0.013,0.937,0.282,3.723,-1.404,-1.404
0.002,0.921,0.282,4.333,-1.343,-1.160

3.854,2.819,2.440,-550.964,251.526,140.198
-0.485,2.354,1.086,-244.995,-147.766,252.319
-0.673,1.733,0.706,-131.042,-141.235,210.937
0.866,1.795,-0.706,81.848,4.822,85.144
1.169,2.309,-1.042,177.368,10.010,-78.369
0.633,2.047,0.044,172.913,-17.822,-192.444
0.815,1.262,-0.167,184.692,31.799,-259.705
0.218,0.284,0.130,39.368,50.415,-184.204
0.130,0.512,0.337,-60.120,59.814,54.626
-0.001,0.921,0.496,-4.639,37.354,180.237
-0.298,0.849,0.396,33.569,24.597,180.542
-0.274,0.728,0.174,31.799,15.259,107.605
-0.246,0.750,0.030,34.302,0.000,42.175
-0.216,0.676,0.027,35.034,-10.681,-1.831
-0.164,0.707,0.107,31.067,-14.771,-13.733
-0.127,0.730,0.202,17.395,-18.372,-16.174
-0.101,0.783,0.282,-2.686,-19.470,-10.010
-0.079,0.838,0.339,-13.916,-18.860,-3.967
-0.041,0.893,0.337,-15.991,-16.113,-2.869
-0.007,0.949,0.295,-15.564,-11.963,-0.671
0.026,1.008,0.257,-12.512,-9.033,2.625
0.070,1.063,0.231,-8.301,-6.470,3.723
0.094,1.109,0.220,-1.709,-4.883,0.977
0.101,1.122,0.219,6.409,-4.028,-3.235
0.077,1.079,0.229,14.404,-3.723,-5.371
0.021,1.021,0.235,19.226,-3.113,-4.822
0.002,0.969,0.234,22.034,-1.465,-4.089
-0.028,0.906,0.245,22.705,0.183,-3.296
-0.059,0.856,0.256,21.667,1.160,-2.319
-0.077,0.825,0.269,19.653,2.014,-1.343
-0.061,0.837,0.252,17.578,2.808,-1.099
-0.049,0.855,0.233,16.479,3.540,-1.404
-0.048,0.854,0.230,13.489,3.601,-2.380
-0.035,0.875,0.252,9.155,4.150,-2.502
-0.018,0.891,0.274,5.066,4.761,-1.831
-0.008,0.906,0.283,1.953,4.761,-0.916
0.001,0.927,0.275,0.427,4.456,-0.488
0.008,0.943,0.262,0.427,4.333,-0.854
0.022,0.967,0.240,1.221,4.333,-1.343
0.037,1.002,0.204,2.380,3.601,-1.892
0.047,1.014,0.198,3.845,1.892,-2.380
0.034,0.992,0.223,4.150,0.793,-2.197
0.023,0.968,0.252,3.540,0.244,-1.038
0.015,0.941,0.268,3.662,0.183,0.488
0.012,0.927,0.268,4.395,0.305,0.916
0.005,0.925,0.255,5.981,0.305,0.061
-0.009,0.906,0.245,7.568,0.000,-0.854
-0.022,0.890,0.251,8.484,0.366,-0.793
-0.025,0.880,0.258,7.690,0.977,-0.427
-0.031,0.875,0.265,5.249,1.282,-0.061
-0.029,0.885,0.269,2.930,1.404,0.305
-0.011,0.903,0.268,0.793,1.465,0.549
-0.009,0.909,0.271,-0.305,0.916,0.122
-0.003,0.924,0.270,-0.549,0.427,-0.244
0.011,0.938,0.269,0.183,0.183,-0.488
0.015,0.947,0.266,0.916,-0.122,-0.916
0.012,0.944,0.263,1.648,-0.122,-1.282
0.005,0.937,0.267,2.136,0.061,-1.221
0.007,0.936,0.268,2.075,0.488,-1.221
0.007,0.935,0.266,2.136,0.671,-1.465
-0.000,0.922,0.265,2.319,0.366,-1.648
-0.006,0.914,0.260,2.258,0.244,-1.587
-0.010,0.907,0.256,1.953,0.000,-1.465
-0.007,0.907,0.251,1.099,-0.305,-1.038
0.001,0.917,0.249,0.305,-0.671,-0.671
0.001,0.920,0.252,-0.061,-1.282,-0.549
-0.002,0.919,0.252,-0.488,-1.343,-0.244
0.000,0.921,0.259,-0.977,-1.160,0.366
-0.002,0.922,0.262,-1.221,-0.854,0.916
0.007,0.927,0.265,-0.916,-0.366,1.160
0.012,0.933,0.261,-0.122,-0.366,1.038
0.011,0.933,0.259,0.671,-0.427,0.610
0.012,0.940,0.259,1.160,-0.183,-0.183
0.014,0.942,0.258,1.465,0.061,-0.916
0.003,0.935,0.262,1.343,0.183,-1.282
-0.004,0.923,0.260,1.038,0.427,-1.099
-0.005,0.923,0.259,0.977,0.854,-0.610
-0.000,0.923,0.257,0.916,1.221,-0.366
-0.003,0.919,0.258,0.732,1.160,-0.183
0.000,0.919,0.253,0.488,1.160,-0.183
0.002,0.922,0.251,0.122,1.099,-0.061
0.006,0.929,0.252,-0.305,0.854,0.000
0.015,0.935,0.252,-0.488,0.793,-0.305
0.013,0.936,0.253,-0.122,0.610,-0.305
0.014,0.934,0.256,0.122,0.549,-0.305
0.014,0.931,0.259,0.366,0.549,-0.305
0.013,0.927,0.262,0.305,0.793,-0.305
0.013,0.928,0.258,0.488,0.854,-0.549
0.016,0.928,0.256,1.038,1.038,-0.854
0.016,0.935,0.255,1.709,1.343,-0.977
0.016,0.937,0.250,1.770,1.221,-1.160
0.012,0.933,0.250,1.892,0.793,-1.282
0.005,0.926,0.254,1.831,0.549,-1.282
0.001,0.921,0.253,1.465,0.366,-1.038
0.001,0.918,0.257,1.404,-0.244,-0.793
0.000,0.915,0.259,1.282,-0.244,-0.610
0.002,0.919,0.261,0.793,-0.061,-0.610
0.009,0.924,0.262,0.793,-0.061,-0.427
0.009,0.927,0.263,0.916,-0.122,-0.793
0.009,0.937,0.258,1.221,-0.061,-0.977
0.009,0.932,0.258,1.770,0.122,-1.099
0.008,0.933,0.262,1.770,0.244,-0.916
0.010,0.929,0.265,2.014,0.305,-0.732
0.007,0.926,0.261,1.892,0.488,-0.427
0.012,0.937,0.259,1.709,0.610,-0.549
0.014,0.937,0.257,2.014,0.244,-0.793
0.013,0.936,0.251,2.258,-0.305,-1.160
0.012,0.934,0.252,2.686,-0.610,-1.526
0.010,0.923,0.266,2.563,-0.977,-1.770
0.007,0.921,0.274,2.075,-1.160,-1.709
0.007,0.914,0.275,1.648,-1.404,-1.404
0.004,0.907,0.273,1.160,-1.221,-1.282
0.004,0.910,0.266,1.221,-0.732,-1.038
0.006,0.912,0.262,0.977,-0.427,-1.160
0.005,0.913,0.265,0.671,-0.122,-1.526
0.003,0.913,0.272,-0.122,0.488,-1.709
0.009,0.915,0.286,-0.854,1.160,-1.831
0.027,0.934,0.301,-1.221,2.075,-1.953
0.039,0.963,0.317,-0.183,3.235,-2.686

4.000,3.271,2.876,-707.886,329.651,96.069
-0.555,2.296,1.035,-301.941,-93.079,244.873
-0.948,1.788,0.561,-214.417,-114.441,213.623
1.111,1.983,-0.721,58.228,-12.024,81.787
1.425,2.025,-0.931,114.685,13.306,-65.979
0.971,1.722,-0.663,111.755,-0.549,-142.639
0.307,0.882,0.065,77.332,-3.479,-148.071
0.233,0.902,-0.093,42.236,47.546,-19.958
0.159,1.027,0.266,63.599,37.659,83.801
-0.146,0.962,0.479,100.037,10.925,77.942
-0.231,0.568,0.396,101.135,6.653,11.536
-0.212,0.454,0.231,81.543,-2.197,-18.005
-0.259,0.517,0.065,42.725,-10.254,-2.869
-0.245,0.586,-0.023,17.456,-14.709,9.216
-0.197,0.626,0.020,4.639,-19.653,11.108
-0.121,0.718,0.127,-5.981,-22.217,13.184
-0.086,0.823,0.253,-14.282,-22.827,15.137
-0.038,0.906,0.337,-23.254,-19.470,9.705
-0.016,0.935,0.367,-27.649,-13.672,3.845
0.036,0.991,0.317,-23.376,-8.423,1.953
0.076,1.059,0.258,-13.794,-5.615,3.479
0.100,1.100,0.216,-4.883,-4.089,3.479
0.105,1.109,0.192,3.906,-2.747,1.282
0.083,1.089,0.183,10.437,-2.136,-1.831
0.061,1.060,0.183,14.282,-1.831,-3.296
0.036,1.017,0.192,16.418,-1.831,-3.357
0.008,0.964,0.198,17.090,-1.892,-2.747
-0.015,0.912,0.207,16.541,-1.953,-1.953
-0.031,0.883,0.204,14.709,-1.587,-0.854
-0.038,0.849,0.205,12.024,-1.587,0.061
-0.051,0.830,0.219,8.057,-1.343,0.793
-0.055,0.823,0.235,3.052,-0.427,1.648
-0.049,0.827,0.254,-1.343,1.099,2.014
-0.038,0.842,0.268,-4.822,3.235,2.197
-0.013,0.899,0.256,-7.080,5.676,2.197
0.063,0.989,0.191,-6.165,6.653,1.404
0.081,1.035,0.172,-2.747,4.578,-0.732
0.075,1.050,0.191,0.244,3.418,-1.831
0.073,1.039,0.210,0.977,3.662,-0.793
0.058,1.018,0.221,2.075,4.333,0.793
0.039,0.988,0.225,3.662,4.211,1.343
0.020,0.949,0.220,4.822,4.761,1.099
-0.002,0.920,0.220,6.042,4.456,0.671
-0.009,0.905,0.207,6.836,3.967,0.000
-0.009,0.903,0.184,7.202,3.052,-0.671
-0.008,0.909,0.165,6.592,1.770,-0.977
-0.009,0.911,0.182,5.005,0.916,-0.427
-0.009,0.910,0.211,2.197,0.854,1.099
-0.005,0.909,0.234,0.244,1.221,2.441
0.004,0.913,0.239,-0.671,1.282,3.357
0.036,0.954,0.214,-0.671,0.916,2.869
0.056,0.991,0.193,0.916,-0.427,0.854
0.047,0.992,0.201,3.662,-2.014,-1.160
0.042,0.980,0.223,5.066,-2.380,-1.770
0.030,0.959,0.238,5.676,-1.953,-1.221
0.020,0.943,0.244,5.737,-0.916,-0.366
0.022,0.938,0.236,5.981,-0.366,-0.732
0.028,0.941,0.216,6.714,-1.099,-1.648
0.013,0.929,0.211,6.836,-2.319,-2.930
-0.001,0.912,0.220,5.127,-2.747,-3.357
-0.011,0.906,0.233,2.808,-2.502,-2.625
-0.007,0.911,0.222,1.099,-2.380,-1.709
-0.003,0.917,0.205,0.916,-2.869,-1.648
0.006,0.926,0.208,1.343,-3.418,-1.465
0.011,0.924,0.231,0.793,-3.357,-1.282
0.008,0.917,0.238,-0.488,-2.991,-0.793
0.002,0.911,0.239,-1.465,-2.258,0.000
-0.005,0.902,0.234,-1.892,-1.160,0.549
-0.013,0.901,0.220,-2.502,-0.183,0.549
0.004,0.928,0.199,-3.418,0.366,0.183
0.016,0.948,0.193,-3.845,-0.122,-0.854
0.026,0.968,0.198,-3.662,-0.671,-1.404
0.035,0.974,0.217,-2.563,-0.610,-1.343
0.039,0.975,0.229,-1.465,0.122,-1.160
0.042,0.974,0.226,0.000,0.977,-1.160
0.040,0.966,0.223,2.075,1.221,-1.526
0.037,0.952,0.222,4.150,1.770,-2.136
0.036,0.945,0.219,5.676,2.441,-2.686
0.027,0.934,0.216,6.470,2.625,-3.113
0.018,0.926,0.210,6.165,2.319,-3.113
0.003,0.919,0.209,5.188,1.831,-2.686
-0.002,0.911,0.211,3.784,1.465,-1.892
0.001,0.911,0.214,2.380,1.404,-0.916
0.011,0.919,0.214,1.282,0.916,-0.305
0.015,0.925,0.212,0.000,0.305,-0.549
0.013,0.928,0.214,-0.854,-0.061,-0.671
0.023,0.940,0.213,-0.977,-0.366,-0.488
0.021,0.943,0.216,-0.671,-0.732,-0.488
0.020,0.943,0.219,-0.366,-0.854,-0.366
0.020,0.943,0.221,0.183,-0.610,-0.244
0.014,0.936,0.222,1.038,-0.183,-0.488
0.016,0.936,0.218,1.343,0.366,-0.854
0.016,0.934,0.220,1.587,0.488,-1.221
0.014,0.936,0.221,1.770,0.671,-1.343
0.015,0.935,0.217,1.587,0.488,-1.343
0.014,0.935,0.214,1.404,0.305,-1.099
0.016,0.937,0.216,1.038,-0.061,-0.854
0.013,0.935,0.221,0.305,-0.488,-0.732
0.015,0.936,0.224,0.549,-0.671,-0.366
0.011,0.934,0.227,1.038,-0.549,-0.061
0.012,0.931,0.224,1.831,-0.061,0.000
0.015,0.931,0.223,1.953,0.549,-0.061
0.013,0.930,0.222,1.526,0.732,-0.366
0.021,0.940,0.218,0.977,0.488,-0.366
0.018,0.938,0.218,0.916,0.061,-0.549
0.013,0.938,0.219,0.671,-0.305,-0.549
0.021,0.941,0.218,0.366,-0.488,-0.427
0.017,0.938,0.220,0.366,-0.610,-0.427
0.016,0.934,0.222,0.305,-0.854,-0.671
0.018,0.933,0.222,0.183,-0.977,-0.732
0.016,0.933,0.222,0.061,-0.916,-0.854
0.019,0.940,0.221,0.000,-0.793,-0.916
0.026,0.941,0.221,0.549,-0.610,-0.793
0.027,0.942,0.220,1.099,-0.488,-0.671
0.024,0.941,0.222,1.343,-0.305,-0.549
0.024,0.941,0.222,1.404,-0.183,-0.732
0.022,0.942,0.220,1.343,-0.122,-1.221
0.018,0.937,0.219,1.892,-0.061,-1.465
0.010,0.930,0.220,2.075,-0.061,-1.404

4.000,-1.076,4.000,-711.487,486.084,46.631
1.322,3.624,0.128,-538.391,8.179,186.401
-1.344,1.819,1.294,-195.984,-242.493,221.130
0.522,1.118,-0.069,33.264,-95.764,140.686
1.597,1.624,-0.823,117.981,-13.428,3.479
1.035,1.613,-0.080,105.408,15.930,-81.970
0.672,1.573,-0.064,19.226,72.510,-54.260
0.526,1.154,0.069,-9.705,73.730,15.503
0.132,1.213,0.297,53.345,31.006,38.513
-0.080,0.809,0.380,90.759,4.272,-13.184
-0.052,0.654,0.273,93.323,5.493,-37.842
-0.129,0.545,0.212,73.547,1.465,-29.541
-0.208,0.609,0.103,42.236,-2.869,7.202
-0.212,0.653,0.026,31.677,-11.902,15.198
-0.161,0.657,0.057,19.409,-18.005,8.911
-0.132,0.721,0.164,7.141,-19.348,8.362
-0.097,0.758,0.284,-7.141,-18.799,7.141
-0.053,0.819,0.347,-19.287,-16.174,7.507
-0.019,0.902,0.364,-23.437,-13.794,8.667
0.014,0.930,0.334,-22.217,-11.292,5.371
0.063,0.978,0.301,-15.686,-7.751,4.089
0.105,1.042,0.263,-8.301,-4.639,2.686
0.139,1.095,0.223,-2.258,-2.869,0.061
0.134,1.104,0.220,4.272,-2.625,-2.380
0.120,1.083,0.234,10.010,-2.869,-3.845
0.099,1.045,0.238,13.977,-3.601,-3.784
0.062,0.989,0.233,17.273,-4.700,-2.502
0.020,0.915,0.233,19.104,-5.249,-0.610
-0.009,0.860,0.245,17.944,-4.456,1.648
-0.021,0.841,0.248,15.198,-3.174,3.296
-0.013,0.828,0.258,11.963,-2.258,3.113
-0.023,0.809,0.278,8.484,-1.160,2.502
-0.018,0.805,0.292,4.333,0.854,2.502
-0.010,0.819,0.309,0.366,3.479,2.686
-0.001,0.840,0.314,-2.441,6.409,2.625
0.047,0.903,0.266,-3.296,7.812,2.258
0.083,0.954,0.224,-3.479,6.714,0.671
0.090,0.995,0.217,-3.357,4.883,-1.282
0.090,1.016,0.236,-2.625,3.723,-1.343
0.095,1.015,0.250,-1.526,3.479,-0.305
0.084,0.997,0.260,-0.305,3.479,0.793
0.065,0.966,0.262,0.610,3.845,1.465
0.035,0.931,0.251,1.709,4.272,1.465
0.017,0.916,0.219,2.502,4.089,1.038
0.025,0.912,0.204,3.052,2.380,-0.061
0.014,0.894,0.224,2.686,0.671,-0.610
0.013,0.894,0.251,1.465,0.366,-0.061
0.025,0.896,0.276,1.099,1.038,0.854
0.030,0.891,0.290,1.587,2.380,1.526
0.026,0.884,0.291,2.319,4.089,2.075
0.032,0.892,0.280,2.869,6.104,2.136
0.054,0.930,0.245,3.540,7.568,1.770
0.085,0.973,0.203,4.639,6.531,0.244
0.089,0.991,0.205,5.188,4.089,-1.709
0.081,0.990,0.236,4.272,2.747,-2.808
0.077,0.981,0.271,3.906,2.258,-2.380
0.069,0.964,0.286,5.249,1.953,-1.770
0.071,0.953,0.275,7.690,2.258,-1.587
0.064,0.940,0.253,9.949,2.625,-1.953
0.046,0.925,0.243,10.742,2.502,-2.502
0.032,0.902,0.251,9.338,1.892,-2.869
0.019,0.882,0.264,6.348,1.404,-2.502
0.013,0.873,0.271,3.662,0.977,-1.953
0.032,0.897,0.258,1.770,0.549,-1.404
0.042,0.914,0.246,1.282,-0.610,-1.892
0.051,0.936,0.240,1.099,-1.648,-2.502
0.059,0.949,0.245,0.610,-2.136,-2.869
0.050,0.941,0.254,0.122,-2.441,-2.869
0.040,0.930,0.266,-0.305,-2.380,-2.197
0.042,0.925,0.272,0.061,-1.709,-1.160
0.053,0.926,0.266,0.916,-1.160,-0.793
0.049,0.924,0.263,2.075,-0.854,-1.160
0.037,0.916,0.263,2.380,-0.549,-1.404
0.034,0.910,0.268,1.953,-0.061,-1.099
0.035,0.908,0.269,1.587,0.427,-0.671
0.034,0.907,0.265,1.221,0.549,-0.244
0.035,0.913,0.262,1.343,0.427,-0.305
0.040,0.920,0.262,1.465,0.549,-0.244
0.043,0.928,0.260,1.282,0.610,-0.366
0.048,0.935,0.259,1.099,0.488,-0.305
0.058,0.939,0.258,1.404,0.488,-0.244
0.062,0.944,0.258,1.648,0.244,-0.427
0.059,0.938,0.261,2.136,-0.183,-0.610
0.057,0.931,0.266,2.930,-0.366,-0.793
0.059,0.931,0.267,3.662,-0.183,-0.854
0.059,0.926,0.264,4.089,-0.183,-1.221
0.052,0.922,0.263,4.333,-0.305,-1.404
0.046,0.920,0.265,4.150,-0.305,-1.587
0.041,0.914,0.262,3.967,0.061,-1.526
0.036,0.912,0.263,3.418,0.000,-1.343
0.033,0.911,0.265,2.502,0.183,-1.282
0.033,0.910,0.267,2.136,0.183,-1.099
0.037,0.916,0.264,2.197,0.244,-0.671
0.045,0.923,0.259,1.526,0.061,-0.366
0.046,0.928,0.258,0.732,-0.305,-0.427
0.046,0.928,0.262,0.183,-0.854,-0.427
0.049,0.930,0.265,0.000,-1.282,-0.366
0.048,0.929,0.270,0.366,-1.404,-0.183
0.047,0.931,0.271,0.916,-1.587,-0.061
0.053,0.932,0.271,1.770,-1.526,-0.122
0.048,0.923,0.270,2.258,-1.343,-0.488
0.044,0.923,0.272,2.136,-1.404,-0.549
0.043,0.916,0.272,2.136,-1.404,-0.732
0.038,0.916,0.270,1.953,-1.404,-0.671
0.039,0.916,0.264,1.770,-1.404,-0.610
0.036,0.913,0.263,1.770,-1.343,-0.549
0.042,0.920,0.265,1.465,-1.099,-0.244
0.047,0.922,0.267,1.343,-1.221,-0.183
0.050,0.923,0.268,0.977,-1.282,-0.122
0.047,0.923,0.272,0.610,-1.343,-0.183
0.051,0.922,0.269,0.488,-1.282,-0.122
0.047,0.920,0.274,0.244,-1.282,-0.122
0.045,0.920,0.273,0.244,-1.221,-0.244
0.049,0.922,0.270,0.366,-1.221,-0.244
0.051,0.923,0.268,0.854,-1.282,-0.366
0.052,0.929,0.268,1.282,-1.343,-0.427
0.052,0.925,0.272,1.526,-1.282,-0.488
0.045,0.923,0.268,1.099,-1.343,-0.427
0.050,0.924,0.264,0.610,-0.977,-0.305

4.000,1.757,4.000,-592.957,419.250,61.157
1.186,2.810,0.848,-304.077,18.616,146.179
-1.339,1.846,0.270,-244.568,-81.055,137.085
1.000,1.685,-0.427,-11.230,-35.889,68.481
1.432,1.572,-0.758,63.538,11.475,-35.156
0.841,1.604,-0.334,50.842,29.297,-54.626
0.376,1.440,-0.194,53.894,25.085,-41.931
0.300,1.130,0.022,82.092,25.452,-39.795
0.182,0.921,0.281,95.520,14.343,-25.269
-0.010,0.774,0.400,84.045,15.808,1.831
-0.180,0.616,0.378,74.951,15.198,18.127
-0.252,0.557,0.260,62.988,10.498,19.836
-0.242,0.531,0.121,43.274,5.066,20.081
-0.224,0.607,0.020,23.071,0.610,29.175
-0.218,0.754,0.011,7.629,-2.441,39.185
-0.176,0.803,0.077,-4.211,-4.089,33.997
-0.113,0.860,0.172,-12.817,-7.141,21.179
-0.076,0.884,0.236,-22.522,-10.986,9.583
-0.032,0.908,0.255,-30.518,-12.390,1.526
0.002,0.965,0.245,-31.433,-12.268,-0.854
0.035,1.036,0.219,-27.588,-11.047,-0.916
0.080,1.091,0.181,-20.325,-9.277,-1.282
0.089,1.103,0.163,-10.559,-8.118,-1.953
0.083,1.097,0.155,-1.221,-6.958,-2.319
0.073,1.068,0.156,6.775,-5.493,-1.221
0.069,1.022,0.167,11.841,-3.845,-0.427
0.045,0.977,0.182,14.221,-2.502,0.061
0.029,0.940,0.187,15.015,-1.221,0.244
0.010,0.892,0.191,14.648,-0.427,0.000
-0.005,0.875,0.193,12.207,0.305,0.183
-0.008,0.863,0.204,9.644,1.221,0.061
-0.002,0.866,0.210,7.080,2.075,-0.183
0.002,0.881,0.207,4.456,3.113,-0.732
0.008,0.896,0.207,1.892,4.272,-1.587
0.026,0.926,0.205,-0.488,5.493,-1.953
0.032,0.950,0.207,-1.648,5.859,-1.831
0.040,0.972,0.197,-1.526,6.470,-1.282
0.061,0.993,0.177,-0.183,6.653,-0.916
0.062,1.006,0.157,2.075,5.615,-1.221
0.050,0.999,0.155,3.906,4.700,-1.282
0.039,0.988,0.160,5.676,4.150,-0.610
0.029,0.966,0.171,7.080,3.418,-0.244
0.031,0.956,0.171,7.812,2.869,-0.183
0.044,0.950,0.168,7.751,2.136,-0.427
0.036,0.945,0.164,7.568,1.343,-1.038
0.017,0.927,0.169,6.775,0.488,-1.343
0.008,0.908,0.183,5.005,0.183,-1.099
0.001,0.898,0.202,2.869,0.305,-0.488
0.000,0.897,0.212,1.160,0.549,0.183
0.000,0.903,0.214,0.244,1.343,0.427
0.029,0.937,0.195,0.732,2.686,0.122
0.059,0.972,0.175,2.075,3.296,-0.549
0.054,0.981,0.168,3.174,2.502,-1.465
0.048,0.980,0.179,3.174,1.587,-1.953
0.047,0.976,0.195,3.174,0.977,-1.587
0.046,0.971,0.202,3.784,0.610,-1.282
0.051,0.973,0.196,5.066,0.183,-1.282
0.059,0.975,0.179,6.531,-0.793,-2.258
0.037,0.957,0.173,7.751,-2.136,-3.296
0.017,0.938,0.185,8.850,-2.502,-3.296
0.012,0.919,0.206,8.667,-1.770,-2.380
0.005,0.902,0.214,7.751,-0.488,-1.282
0.003,0.903,0.212,6.531,0.488,-0.732
0.031,0.931,0.187,5.615,0.610,-0.732
0.036,0.938,0.174,5.066,-0.366,-1.770
0.021,0.933,0.178,4.028,-1.282,-2.747
0.013,0.927,0.196,2.625,-1.160,-2.197
0.012,0.922,0.209,0.916,-0.061,-0.977
0.008,0.921,0.209,-0.244,0.854,-0.183
0.032,0.941,0.188,-0.671,1.343,0.061
0.037,0.954,0.176,-0.610,0.671,-0.671
0.030,0.957,0.179,-0.122,-0.366,-1.282
0.024,0.954,0.197,0.427,-0.610,-1.038
0.029,0.955,0.203,0.366,-0.244,-0.244
0.030,0.945,0.205,0.122,0.549,0.061
0.029,0.946,0.207,0.610,1.404,0.061
0.028,0.945,0.201,2.075,2.075,-0.122
0.029,0.944,0.190,3.418,2.319,-0.488
0.031,0.948,0.191,4.150,2.441,-0.854
0.038,0.952,0.195,4.211,2.319,-0.977
0.039,0.947,0.192,4.395,1.465,-1.160
0.033,0.942,0.189,4.395,0.610,-0.916
0.032,0.938,0.191,4.211,0.305,-0.916
0.029,0.934,0.194,4.089,0.427,-0.793
0.030,0.930,0.197,3.845,0.793,-0.549
0.036,0.932,0.202,3.296,0.977,-0.732
0.036,0.939,0.202,2.930,1.038,-0.977
0.036,0.941,0.201,2.747,1.221,-1.099
0.037,0.946,0.200,2.869,1.038,-1.343
0.031,0.943,0.205,2.686,0.732,-1.343
0.027,0.942,0.207,2.258,1.038,-1.038
0.029,0.943,0.205,2.197,0.916,-0.916
0.028,0.941,0.205,2.075,0.793,-0.854
0.035,0.948,0.200,2.014,0.732,-0.854
0.037,0.959,0.198,2.502,0.488,-1.099
0.033,0.954,0.199,2.625,-0.061,-1.587
0.027,0.945,0.203,2.441,-0.488,-1.587
0.026,0.941,0.208,2.380,-0.549,-1.221
0.029,0.936,0.207,2.075,-0.549,-0.854
0.025,0.933,0.207,2.136,-0.671,-0.610
0.032,0.932,0.206,2.319,-0.610,-0.854
0.034,0.939,0.204,2.380,-0.793,-0.854
0.035,0.940,0.204,2.380,-0.793,-0.916
0.035,0.937,0.208,2.502,-0.916,-0.916
0.034,0.933,0.212,2.808,-0.977,-0.732
0.032,0.928,0.215,2.686,-1.038,-0.427
0.038,0.936,0.210,2.441,-0.854,-0.366
0.035,0.938,0.205,2.319,-1.038,-0.732
0.033,0.935,0.204,1.953,-1.160,-0.977
0.035,0.939,0.211,1.709,-1.038,-1.099
0.036,0.938,0.219,1.587,-0.916,-0.793
0.036,0.935,0.220,1.709,-0.732,-0.671
0.034,0.938,0.215,1.770,-0.549,-0.671
0.032,0.937,0.212,1.953,-0.488,-0.793
0.029,0.934,0.212,1.831,-0.488,-0.671
0.026,0.934,0.212,1.831,-0.488,-0.488
0.026,0.931,0.212,1.343,-0.488,-0.488
0.026,0.929,0.215,0.854,-0.244,-0.427
0.026,0.930,0.215,0.244,0.061,-0.366

4.000,2.077,4.000,-450.500,242.065,-1.587
-0.012,2.432,1.010,-297.424,-45.593,138.367
-0.919,1.908,0.077,-199.524,-48.950,147.461
0.909,1.980,-0.244,40.710,-28.870,2.136
1.299,1.438,-0.561,58.533,36.682,-106.384
0.817,1.318,-0.526,-13.489,63.599,-73.486
0.368,1.275,-0.429,-32.654,51.147,4.639
0.157,1.191,-0.024,23.621,4.333,23.560
0.035,0.837,0.245,88.684,-15.503,-5.066
-0.144,0.638,0.381,100.952,-9.460,-14.465
-0.152,0.489,0.270,88.684,-2.991,-16.663
-0.191,0.601,0.193,67.566,-5.310,-3.540
-0.189,0.664,0.061,37.292,-1.953,12.878
-0.128,0.744,-0.002,19.287,-5.920,13.855
-0.059,0.820,0.039,10.071,-12.939,8.118
-0.030,0.901,0.110,5.493,-17.578,3.906
0.010,0.918,0.175,-3.113,-16.663,-4.395
0.025,0.973,0.227,-5.371,-12.817,-4.272
0.038,1.015,0.226,-2.808,-9.155,-2.991
0.056,1.023,0.187,-0.427,-5.249,-2.686
0.051,1.012,0.152,3.418,-3.174,-1.038
0.046,1.013,0.146,9.399,-2.563,0.671
0.059,1.011,0.134,13.123,-1.953,1.099
0.081,0.997,0.120,14.221,-2.686,1.465
0.055,0.970,0.128,17.212,-4.822,3.113
0.034,0.951,0.144,20.630,-6.165,5.554
0.010,0.903,0.165,20.813,-6.104,7.141
-0.001,0.887,0.173,18.616,-4.944,7.385
-0.001,0.888,0.165,14.282,-3.479,6.409
0.021,0.903,0.151,9.277,-2.625,3.235
0.027,0.909,0.165,5.066,-2.380,-0.549
0.033,0.924,0.190,2.502,-1.770,-2.197
0.036,0.930,0.212,1.038,-0.732,-2.502
0.034,0.937,0.216,0.122,1.343,-2.197
0.034,0.952,0.193,0.977,4.028,-2.136
0.053,0.971,0.157,2.502,5.737,-2.380
0.061,0.979,0.141,3.052,5.310,-2.136
0.046,0.982,0.140,2.136,4.089,-1.465
0.033,0.970,0.157,1.099,3.174,-0.366
0.025,0.948,0.172,0.122,2.747,0.366
0.014,0.930,0.175,-0.732,2.686,0.916
0.010,0.926,0.170,-1.831,3.235,1.221
0.030,0.944,0.143,-2.075,3.662,0.916
0.055,0.961,0.122,-1.404,2.808,0.244
0.047,0.967,0.129,-1.282,0.916,-0.610
0.032,0.958,0.157,-1.709,-0.244,-0.671
0.032,0.949,0.181,-1.953,-0.061,0.305
0.026,0.934,0.194,-2.319,0.732,1.160
0.021,0.933,0.194,-2.441,1.465,1.343
0.046,0.963,0.160,-1.099,2.319,1.282
0.081,0.990,0.135,1.770,1.770,0.610
0.069,0.993,0.141,3.723,0.061,-0.244
0.054,0.978,0.160,3.967,-0.732,-0.122
0.043,0.961,0.180,3.601,-0.549,0.854
0.028,0.939,0.192,3.113,-0.122,1.282
0.015,0.924,0.193,3.052,0.427,1.099
0.022,0.928,0.166,3.418,0.916,0.488
0.042,0.946,0.133,3.601,0.977,-0.488
0.042,0.953,0.133,2.747,0.061,-1.221
0.033,0.947,0.152,1.038,-0.793,-1.282
0.026,0.937,0.171,-0.183,-1.038,-0.488
0.022,0.930,0.177,-0.854,-0.977,0.427
0.034,0.942,0.168,-1.160,-0.854,0.488
0.052,0.954,0.148,-0.916,-1.099,-0.122
0.048,0.961,0.140,-0.488,-2.014,-0.732
0.041,0.958,0.149,-0.427,-2.808,-0.488
0.031,0.945,0.165,-0.793,-2.747,0.305
0.017,0.927,0.172,-0.977,-2.258,1.038
0.018,0.939,0.166,-0.854,-1.465,1.160
0.048,0.961,0.148,-0.122,-0.732,0.366
0.049,0.973,0.145,1.282,-1.160,-0.977
0.039,0.967,0.152,1.892,-1.648,-1.404
0.031,0.954,0.167,1.587,-1.404,-0.549
0.024,0.940,0.178,0.977,-0.732,0.427
0.019,0.933,0.176,0.977,-0.366,0.854
0.019,0.933,0.164,1.404,-0.122,0.732
0.024,0.937,0.148,1.221,-0.122,0.061
0.022,0.936,0.150,0.244,-0.183,-0.427
0.016,0.941,0.163,-0.977,-0.122,0.000
0.023,0.945,0.169,-1.831,0.305,0.610
0.048,0.967,0.153,-2.136,0.183,0.854
0.057,0.976,0.142,-1.770,-0.671,0.244
0.055,0.976,0.146,-1.282,-1.892,-0.549
0.046,0.972,0.158,-0.854,-2.563,-0.427
0.039,0.962,0.168,0.000,-2.502,0.183
0.036,0.955,0.172,1.648,-1.770,0.549
0.044,0.959,0.162,3.296,-0.977,0.427
0.049,0.954,0.152,4.333,-0.854,-0.061
0.038,0.952,0.158,4.517,-1.099,-0.793
0.029,0.944,0.170,4.211,-0.854,-0.732
0.021,0.933,0.179,3.906,-0.427,-0.610
0.009,0.922,0.181,3.662,0.122,-0.305
-0.000,0.919,0.168,3.113,0.549,-0.366
0.015,0.931,0.147,2.441,0.793,-0.427
0.033,0.952,0.145,1.343,0.305,-0.427
0.029,0.958,0.158,0.244,-0.732,-0.427
0.026,0.958,0.173,-0.122,-1.221,-0.305
0.024,0.949,0.179,-0.427,-1.221,0.061
0.020,0.943,0.180,-0.366,-0.977,0.183
0.032,0.952,0.166,-0.122,-0.732,0.183
0.050,0.968,0.149,0.610,-1.038,-0.488
0.036,0.962,0.152,1.160,-2.014,-1.221
0.030,0.955,0.163,1.526,-2.319,-1.099
0.028,0.945,0.177,1.831,-1.526,-0.244
0.025,0.938,0.180,2.075,-0.488,0.427
0.038,0.948,0.167,2.625,0.244,0.305
0.045,0.951,0.157,2.869,-0.122,-0.610
0.038,0.950,0.158,3.052,-0.854,-1.282
0.034,0.948,0.161,2.747,-1.343,-1.282
0.028,0.943,0.157,2.136,-1.770,-1.160
0.023,0.937,0.159,1.404,-2.197,-0.854
0.016,0.935,0.166,0.671,-2.197,-0.610
0.019,0.939,0.171,0.488,-1.892,-0.366
0.021,0.944,0.170,0.977,-1.343,-0.305
0.033,0.950,0.167,1.221,-0.671,-0.305
0.040,0.958,0.163,1.526,-0.366,-0.610
0.037,0.959,0.163,2.014,-0.305,-0.732
0.039,0.961,0.161,2.441,-0.305,-0.732
0.037,0.960,0.161,2.869,-0.427,-0.854

4.000,1.532,4.000,-307.251,420.898,-27.832
3.085,3.448,1.710,-168.823,54.565,46.936
-1.202,1.018,0.417,-193.726,25.452,113.281
0.114,1.874,-0.224,-85.144,-12.329,59.753
1.174,1.812,-0.566,9.949,-11.658,-52.368
0.773,1.172,-0.573,4.944,20.203,-81.482
0.317,1.231,-0.613,-20.996,21.545,-11.658
0.034,1.149,-0.642,9.399,19.958,36.865
-0.002,1.156,-0.089,80.933,-1.892,33.752
0.087,0.904,0.324,121.216,-3.906,-3.479
0.051,0.676,0.412,118.591,-4.578,-13.428
-0.119,0.557,0.365,96.680,-16.785,-6.042
-0.274,0.552,0.191,51.453,-21.362,10.559
-0.179,0.626,0.078,15.381,-15.808,21.545
-0.058,0.781,0.071,-3.662,-11.475,25.513
-0.016,0.893,0.113,-5.737,-13.855,21.851
0.005,0.909,0.153,-2.930,-16.479,6.775
0.034,0.942,0.182,-1.587,-13.367,-4.578
0.038,0.997,0.177,3.784,-8.484,-6.775
0.041,1.019,0.150,7.690,-3.479,-8.301
0.044,1.037,0.120,11.230,-0.427,-6.592
0.047,1.038,0.110,16.174,-0.427,-4.272
0.051,1.021,0.108,19.897,-1.465,-2.930
0.054,1.004,0.114,20.569,-2.258,-1.587
0.049,0.978,0.121,19.592,-2.563,-1.160
0.030,0.949,0.131,19.409,-2.380,-1.404
0.021,0.923,0.133,20.325,-1.465,-0.732
0.010,0.905,0.143,18.738,0.061,0.061
0.000,0.885,0.152,15.320,1.648,-0.549
0.003,0.880,0.154,12.390,2.502,-0.916
0.010,0.889,0.157,10.376,2.869,-0.977
0.024,0.906,0.158,8.423,3.418,-0.916
0.040,0.922,0.164,6.836,3.967,-1.221
0.053,0.954,0.165,5.737,4.456,-1.709
0.068,0.972,0.156,5.737,4.700,-2.380
0.061,0.971,0.148,6.287,4.700,-3.052
0.054,0.973,0.146,5.859,5.005,-2.991
0.053,0.968,0.146,4.578,5.615,-2.319
0.039,0.962,0.150,3.418,5.432,-1.831
0.068,0.991,0.126,2.869,4.822,-1.587
0.073,0.990,0.116,3.357,3.174,-2.014
0.044,0.973,0.128,4.517,1.038,-2.075
0.033,0.948,0.154,5.005,0.488,-1.282
0.024,0.924,0.174,4.272,0.916,-0.427
0.010,0.904,0.186,3.479,1.404,0.244
0.005,0.897,0.189,2.869,2.502,0.488
0.034,0.927,0.156,2.563,3.296,0.000
0.061,0.943,0.128,2.319,2.502,-1.282
0.047,0.953,0.137,2.136,0.793,-2.441
0.040,0.959,0.162,1.709,0.183,-2.014
0.036,0.957,0.183,1.404,0.732,-0.732
0.033,0.950,0.192,1.282,1.404,0.305
0.024,0.939,0.195,1.953,2.075,0.671
0.029,0.935,0.185,2.930,2.747,0.671
0.037,0.946,0.171,3.723,2.991,-0.122
0.033,0.952,0.158,3.967,2.441,-1.221
0.052,0.962,0.134,3.357,1.404,-1.892
0.060,0.973,0.129,2.258,0.244,-1.953
0.072,0.993,0.139,1.770,-0.488,-2.014
0.079,1.000,0.150,1.892,-1.221,-1.892
0.067,0.990,0.152,3.235,-2.014,-1.709
0.059,0.972,0.158,5.005,-2.441,-1.648
0.050,0.943,0.172,5.920,-2.502,-1.465
0.039,0.925,0.176,5.432,-2.258,-1.465
0.037,0.916,0.170,4.761,-2.197,-1.282
0.033,0.906,0.167,4.333,-2.014,-1.404
0.026,0.906,0.160,2.869,-1.648,-1.770
0.016,0.908,0.162,1.648,-0.854,-1.648
0.015,0.915,0.171,0.244,0.061,-1.160
0.016,0.923,0.174,-0.793,1.038,-0.671
0.031,0.942,0.170,-1.099,1.648,-0.366
0.047,0.956,0.163,-0.854,1.892,-0.549
0.052,0.968,0.155,-0.122,1.404,-0.732
0.052,0.974,0.155,0.305,1.160,-0.793
0.047,0.969,0.161,0.305,1.282,-0.793
0.047,0.965,0.164,0.427,1.709,-0.488
0.049,0.959,0.163,0.854,1.831,-0.244
0.045,0.951,0.162,1.343,1.587,-0.305
0.044,0.949,0.160,1.709,1.465,-0.549
0.047,0.952,0.156,2.136,1.465,-0.671
0.048,0.953,0.153,2.319,1.587,-0.916
0.048,0.950,0.157,2.258,1.526,-0.793
0.052,0.950,0.158,2.258,1.343,-0.793
0.044,0.939,0.161,2.441,1.038,-0.671
0.037,0.932,0.167,2.014,1.343,-0.549
0.037,0.931,0.170,1.465,1.770,-0.427
0.041,0.936,0.164,0.732,2.136,-0.244
0.049,0.942,0.154,0.122,2.136,-0.488
0.058,0.954,0.146,-0.366,1.282,-0.854
0.063,0.962,0.148,-0.061,0.244,-0.916
0.063,0.968,0.155,0.793,-0.305,-0.793
0.060,0.966,0.165,1.465,-0.183,-0.732
0.053,0.957,0.176,1.587,0.183,-0.793
0.046,0.944,0.179,1.770,0.610,-0.793
0.042,0.937,0.172,2.136,0.793,-0.671
0.045,0.939,0.161,2.136,0.671,-0.977
0.046,0.940,0.154,1.709,0.427,-1.221
0.038,0.939,0.161,0.977,-0.244,-1.038
0.030,0.934,0.174,0.122,-0.244,-0.427
0.024,0.926,0.182,-0.305,0.000,0.183
0.029,0.931,0.177,-0.732,0.671,0.427
0.047,0.948,0.161,-1.465,1.038,0.122
0.062,0.970,0.146,-1.404,0.549,-0.366
0.067,0.983,0.149,-0.122,-0.305,-0.793
0.076,0.985,0.155,0.732,-0.854,-0.549
0.069,0.974,0.168,1.099,-1.099,-0.122
0.059,0.958,0.178,1.831,-1.099,0.183
0.046,0.936,0.182,2.625,-0.916,0.183
0.036,0.925,0.174,2.686,-0.488,0.183
0.041,0.929,0.161,2.319,-0.427,-0.366
0.046,0.942,0.158,2.319,-0.793,-0.854
0.045,0.942,0.168,2.258,-0.854,-0.916
0.044,0.940,0.176,1.709,-0.427,-0.549
0.040,0.938,0.183,1.343,0.183,-0.122
0.036,0.934,0.184,1.465,0.916,0.366
0.035,0.936,0.174,1.587,1.343,0.366
0.066,0.960,0.151,1.831,1.160,0.000
0.071,0.965,0.137,1.831,-0.061,-0.610
0.052,0.966,0.146,1.282,-1.343,-1.038

4.000,0.899,4.000,-487.427,606.812,-40.894
3.127,3.998,1.119,-298.096,195.007,64.453
-1.229,1.903,0.584,-221.680,23.621,99.487
0.092,1.662,-0.320,-77.515,-33.203,33.081
1.276,1.236,-1.020,65.369,-49.377,-55.664
0.667,0.854,-0.781,62.744,-68.298,-87.952
0.152,0.941,-0.387,-6.531,-90.515,-1.587
-0.073,0.970,-0.529,14.587,-55.237,84.412
-0.173,1.040,-0.404,66.711,-20.935,105.713
-0.252,0.932,0.123,70.007,7.202,61.768
-0.192,0.763,0.151,67.017,62.988,12.817
0.292,0.550,0.698,45.105,77.637,-7.202
0.147,0.805,0.576,8.179,27.588,8.911
-0.238,0.779,0.244,-7.690,-10.986,14.893
-0.103,0.757,0.068,-14.954,-22.827,14.404
-0.066,0.806,-0.003,-19.165,-26.611,6.592
-0.050,0.891,0.042,-18.372,-23.743,2.441
-0.005,1.018,0.089,-8.545,-18.982,3.845
0.007,1.021,0.121,-2.319,-10.620,-0.732
0.029,1.028,0.129,0.732,-3.479,-3.784
0.038,1.048,0.127,3.601,0.122,-3.357
0.035,1.048,0.104,6.226,0.549,-2.441
0.030,1.033,0.085,9.094,-1.465,0.061
0.021,1.003,0.082,11.475,-3.845,1.465
0.015,0.972,0.090,14.099,-4.700,1.648
0.016,0.959,0.102,18.066,-4.211,2.258
0.013,0.953,0.111,19.043,-3.235,2.380
0.008,0.944,0.123,16.968,-2.197,0.488
-0.002,0.929,0.128,14.832,-1.404,-1.343
-0.012,0.911,0.139,11.108,-0.366,-2.563
-0.022,0.908,0.149,7.751,0.671,-2.686
0.003,0.937,0.139,5.493,2.319,-2.869
0.036,0.969,0.129,4.150,3.357,-3.845
0.037,0.994,0.123,4.578,2.869,-4.578
0.036,1.001,0.128,5.798,3.113,-4.700
0.029,1.001,0.125,7.263,3.845,-4.395
0.026,0.995,0.111,8.545,4.456,-3.967
0.020,0.976,0.102,8.118,4.272,-3.479
0.003,0.962,0.104,6.836,3.601,-2.563
-0.014,0.934,0.116,5.249,2.747,-1.526
-0.024,0.913,0.127,3.174,2.930,-0.122
-0.029,0.907,0.127,0.732,3.113,0.793
-0.004,0.920,0.112,-1.343,3.296,0.916
0.005,0.927,0.110,-2.747,2.686,0.122
0.008,0.941,0.126,-3.662,2.319,-0.366
0.014,0.946,0.138,-3.906,2.502,-0.427
0.015,0.946,0.148,-3.296,2.930,-0.305
0.015,0.950,0.153,-2.747,3.540,-0.244
0.033,0.972,0.137,-1.892,4.883,-0.732
0.064,0.998,0.095,-0.793,5.066,-2.014
0.068,1.009,0.086,0.610,3.052,-3.601
0.049,1.010,0.100,1.770,0.854,-4.150
0.039,1.008,0.121,3.174,0.183,-3.662
0.036,0.998,0.137,4.456,0.610,-2.502
0.031,0.978,0.137,5.737,1.343,-1.526
0.029,0.968,0.129,6.958,1.587,-1.465
0.023,0.951,0.108,7.385,0.916,-2.075
0.001,0.928,0.109,6.592,-0.244,-2.747
-0.004,0.924,0.122,5.005,-0.916,-2.747
0.001,0.929,0.128,3.784,-0.854,-2.258
0.006,0.931,0.130,2.808,-0.732,-1.648
0.013,0.937,0.129,1.953,-0.793,-1.160
0.020,0.949,0.125,1.587,-0.916,-0.549
0.025,0.957,0.119,1.343,-1.160,-0.366
0.029,0.960,0.116,1.099,-1.343,-0.427
0.017,0.961,0.125,1.038,-1.709,-0.488
0.016,0.957,0.128,1.038,-1.404,-0.427
0.017,0.954,0.125,1.221,-0.793,-0.366
0.012,0.950,0.126,1.709,-0.671,-0.488
0.008,0.949,0.126,2.197,-0.488,-0.488
0.008,0.948,0.128,2.441,-0.244,-0.549
0.016,0.952,0.121,2.258,0.000,-0.671
0.007,0.946,0.127,2.075,0.061,-0.916
0.003,0.949,0.130,1.526,0.305,-0.610
0.017,0.957,0.123,1.282,0.854,-0.244
0.021,0.960,0.118,1.038,0.793,-0.366
0.022,0.964,0.119,1.160,0.305,-0.427
0.018,0.958,0.127,1.831,0.244,-0.427
0.016,0.955,0.131,2.258,0.854,-0.061
0.020,0.954,0.132,2.197,1.526,0.244
0.026,0.959,0.125,1.953,1.770,0.061
0.031,0.961,0.117,2.136,1.343,-0.610
0.024,0.955,0.119,2.380,0.671,-1.038
0.022,0.953,0.125,1.770,0.549,-0.916
0.026,0.953,0.128,1.282,0.916,-0.610
0.018,0.950,0.131,1.465,1.099,-0.122
0.012,0.946,0.139,1.465,1.282,0.061
0.009,0.941,0.143,1.038,1.831,0.122
0.013,0.949,0.135,0.732,2.441,0.000
0.046,0.970,0.102,0.793,2.197,-0.305
0.046,0.983,0.096,0.916,0.610,-1.099
0.038,0.986,0.112,0.854,-1.160,-1.465
0.030,0.975,0.135,1.160,-1.770,-0.916
0.022,0.964,0.142,1.282,-1.160,-0.305
0.022,0.958,0.139,1.282,-0.244,0.000
0.024,0.955,0.135,1.770,0.244,-0.305
0.014,0.941,0.133,2.625,-0.061,-0.854
0.004,0.935,0.132,2.747,-0.122,-0.916
0.005,0.930,0.138,2.380,0.122,-0.793
0.013,0.936,0.137,2.258,0.427,-0.549
0.020,0.945,0.133,1.953,0.244,-0.610
0.022,0.956,0.129,1.465,0.183,-0.671
0.021,0.957,0.127,1.404,-0.061,-0.610
0.019,0.958,0.126,1.160,0.000,-0.427
0.020,0.960,0.126,0.793,0.305,-0.305
0.020,0.957,0.128,0.305,0.183,-0.366
0.018,0.956,0.133,0.244,-0.061,-0.244
0.017,0.954,0.133,0.366,-0.061,-0.488
0.013,0.952,0.134,0.183,-0.183,-0.610
0.018,0.955,0.133,0.061,-0.244,-0.549
0.026,0.957,0.129,0.000,-0.244,-0.549
0.029,0.965,0.124,0.244,-0.549,-0.732
0.029,0.963,0.126,0.793,-0.793,-0.854
0.027,0.963,0.125,1.465,-0.793,-0.549
0.027,0.958,0.124,2.014,-0.427,-0.061
0.022,0.954,0.132,1.404,-0.122,0.122
0.024,0.954,0.130,0.732,0.061,-0.061
0.026,0.953,0.126,1.221,0.061,-0.183
0.022,0.950,0.127,1.160,-0.122,-0.549

4.000,3.998,2.982,-555.847,294.373,60.547
-0.219,2.976,0.839,-223.083,42.969,193.359
-0.299,1.500,-0.219,-157.043,23.437,136.108
0.974,1.584,-0.878,71.045,-4.089,7.080
1.005,1.747,-0.907,108.154,-46.692,-104.126
0.478,1.250,-0.352,103.027,-82.825,-150.757
-0.008,0.798,0.135,66.467,-64.026,-123.169
0.282,0.955,-0.234,71.838,0.488,-81.726
0.055,0.314,0.675,55.298,-8.850,-77.576
-0.196,0.493,0.381,-35.767,45.593,18.433
-0.033,0.599,0.014,-29.419,78.796,100.830
-0.206,0.840,-0.013,-31.860,37.109,125.427
-0.217,0.890,-0.028,-27.405,0.793,94.421
-0.103,0.829,0.012,-15.076,-17.822,48.157
-0.070,0.867,0.100,-5.737,-26.123,19.897
-0.027,0.908,0.166,-1.221,-25.818,3.357
-0.008,0.963,0.191,2.075,-18.860,-7.568
0.001,1.000,0.143,6.226,-8.545,-11.475
0.012,1.014,0.117,11.169,-6.287,-10.376
0.031,1.048,0.087,18.127,-7.568,-8.728
0.040,1.062,0.087,25.452,-10.803,-7.629
0.041,1.069,0.088,29.907,-12.573,-4.150
0.021,1.059,0.122,31.677,-12.146,-2.136
0.013,1.027,0.101,25.146,-5.920,-6.287
0.027,0.985,0.105,18.188,-0.061,-10.498
0.009,0.931,0.082,6.226,5.005,-8.789
0.000,0.908,0.107,-2.380,4.517,1.831
-0.015,0.882,0.123,-5.615,2.930,8.789
-0.023,0.884,0.146,-4.578,2.136,11.719
-0.019,0.895,0.138,-3.113,2.808,8.789
0.005,0.921,0.114,-1.160,2.747,3.906
0.026,0.936,0.110,1.099,2.319,-1.526
0.026,0.957,0.140,2.930,2.075,-3.235
0.028,0.959,0.155,2.502,3.784,-2.991
0.018,0.955,0.158,1.953,5.798,-2.319
0.006,0.947,0.155,1.526,8.118,-0.854
0.009,0.958,0.130,0.610,10.681,1.099
0.036,0.974,0.066,0.305,11.536,1.465
0.062,0.997,0.022,-0.122,8.911,0.061
0.044,1.011,0.055,-0.488,3.967,-1.709
0.033,1.007,0.091,-0.793,1.221,-2.014
0.030,0.986,0.123,-0.061,0.122,-0.549
0.024,0.959,0.138,0.000,0.122,1.099
0.018,0.939,0.139,-0.427,0.732,2.075
0.018,0.938,0.130,-0.793,1.343,2.197
0.023,0.950,0.117,-1.038,1.587,1.465
0.051,0.975,0.082,-0.549,0.854,0.000
0.056,0.991,0.082,1.099,-1.038,-1.648
0.052,1.004,0.106,3.601,-2.625,-1.953
0.055,1.004,0.125,6.165,-2.991,-1.282
0.055,0.995,0.130,7.874,-2.319,-0.305
0.042,0.981,0.129,8.667,-1.648,0.305
0.027,0.959,0.134,9.460,-1.404,0.183
0.018,0.948,0.136,10.071,-1.160,0.061
0.028,0.948,0.120,10.559,-1.099,-0.549
0.022,0.935,0.119,10.803,-1.892,-1.404
0.007,0.932,0.127,9.583,-2.686,-1.953
0.004,0.929,0.139,8.301,-2.930,-2.014
-0.005,0.915,0.149,6.958,-2.625,-1.465
-0.003,0.924,0.145,5.676,-1.709,-0.977
0.012,0.936,0.124,4.822,-0.732,-0.488
0.017,0.945,0.122,4.150,-0.854,-0.793
0.016,0.947,0.130,3.296,-1.282,-0.854
0.015,0.945,0.141,2.502,-1.709,-0.488
0.007,0.938,0.145,1.953,-1.648,-0.061
0.001,0.926,0.150,1.221,-0.854,0.122
-0.009,0.916,0.156,0.549,0.000,0.183
-0.017,0.910,0.158,-0.244,1.160,0.488
-0.018,0.923,0.138,-0.977,2.380,0.549
0.011,0.943,0.106,-1.099,2.625,0.244
0.025,0.965,0.102,-1.282,1.404,-0.366
0.025,0.978,0.118,-1.404,0.122,-0.793
0.030,0.984,0.134,-1.465,-0.061,-0.671
0.043,0.988,0.133,-1.038,0.122,-0.061
0.050,0.990,0.128,-0.488,0.183,0.061
0.050,0.984,0.123,0.305,-0.122,-0.061
0.041,0.972,0.123,1.343,-0.549,-0.427
0.033,0.960,0.120,2.502,-1.038,-0.793
0.017,0.946,0.134,3.418,-1.160,-0.977
0.007,0.941,0.140,3.662,-0.366,-0.854
0.015,0.938,0.142,3.784,1.038,-0.488
0.026,0.941,0.129,3.296,1.770,-0.671
0.027,0.949,0.123,2.686,1.160,-0.977
0.024,0.952,0.126,2.747,0.488,-1.404
0.019,0.952,0.131,2.563,0.000,-1.343
0.015,0.955,0.134,2.319,0.061,-1.099
0.020,0.958,0.133,2.136,0.183,-1.038
0.020,0.961,0.134,1.831,0.366,-1.038
0.016,0.965,0.133,1.831,0.305,-1.099
0.012,0.960,0.133,2.014,0.366,-1.404
0.015,0.958,0.133,2.075,0.366,-1.709
0.012,0.953,0.137,2.197,0.244,-1.587
0.006,0.949,0.142,2.319,0.244,-1.526
0.006,0.946,0.138,2.747,0.549,-1.343
0.009,0.944,0.134,2.930,0.916,-1.038
0.014,0.949,0.131,2.747,1.099,-0.610
0.021,0.957,0.129,2.747,1.038,-0.427
0.025,0.956,0.127,2.625,0.916,-0.366
0.019,0.951,0.127,2.197,0.610,-0.488
0.017,0.952,0.132,1.465,0.244,-0.366
0.018,0.950,0.134,1.160,0.183,-0.366
0.019,0.951,0.133,0.977,0.061,-0.732
0.018,0.949,0.135,1.099,-0.061,-1.099
0.017,0.952,0.139,1.343,0.000,-1.343
0.023,0.953,0.132,1.709,0.183,-1.343
0.024,0.953,0.130,1.770,0.061,-1.587
0.019,0.957,0.134,1.465,-0.061,-1.709
0.017,0.950,0.139,1.221,-0.061,-1.465
0.017,0.950,0.139,1.343,0.000,-1.221
0.022,0.953,0.137,1.465,0.244,-1.099
0.027,0.961,0.134,1.587,0.244,-1.038
0.031,0.964,0.130,1.831,0.122,-1.221
0.030,0.964,0.133,2.197,-0.122,-1.404
0.024,0.958,0.138,2.380,-0.122,-1.282
0.023,0.955,0.136,2.380,-0.061,-1.038
0.024,0.956,0.134,1.953,0.122,-1.038
0.027,0.956,0.132,1.892,0.183,-1.221
0.026,0.954,0.132,2.258,0.244,-1.343
0.023,0.951,0.138,2.502,0.305,-1.221

4.000,-0.141,3.697,-1011.658,674.011,67.749
1.321,4.000,-0.243,-484.741,96.069,263.550
-1.253,2.425,2.071,-261.414,-250.977,276.733
0.679,1.514,-0.334,13.977,-52.063,136.963
1.448,1.794,-1.472,164.856,15.198,-63.477
0.915,1.830,-0.476,119.812,-34.424,-146.545
0.492,1.726,0.286,80.566,-29.175,-139.221
0.449,0.727,0.040,90.576,27.893,-135.742
-0.029,0.386,0.335,-20.813,43.030,-17.395
0.047,0.575,0.325,-10.315,50.781,127.075
-0.166,1.050,0.331,27.039,29.846,179.626
-0.331,0.794,0.276,23.132,18.188,115.234
-0.289,0.629,0.018,16.663,17.517,48.889
-0.222,0.556,-0.082,22.888,-2.502,19.043
-0.257,0.685,0.026,20.264,-29.419,8.911
-0.227,0.696,0.174,11.414,-33.691,-5.493
-0.147,0.794,0.197,5.859,-21.423,-12.939
-0.087,0.860,0.282,2.563,-15.930,-20.691
-0.052,0.937,0.297,-0.793,-14.832,-21.606
-0.015,1.012,0.329,-0.244,-14.587,-15.137
0.034,1.092,0.256,-4.883,-7.263,-12.024
0.047,1.115,0.189,-10.071,0.732,-9.155
0.052,1.139,0.177,-6.775,2.136,-5.615
0.048,1.136,0.174,0.549,2.625,-6.104
0.038,1.093,0.176,9.033,2.258,-5.920
0.012,1.042,0.196,15.808,-1.038,-4.028
-0.010,0.988,0.184,21.057,-2.502,-2.747
-0.042,0.922,0.183,23.987,-3.418,-3.479
-0.073,0.865,0.199,23.743,-4.089,-3.723
-0.089,0.818,0.213,20.813,-3.479,-2.441
-0.093,0.803,0.220,15.991,-1.831,-0.916
-0.080,0.818,0.220,11.536,-0.610,-0.244
-0.065,0.829,0.225,7.507,0.549,-0.671
-0.046,0.862,0.235,3.723,2.319,-1.038
-0.022,0.898,0.249,0.977,4.639,-1.343
-0.005,0.929,0.252,-0.183,6.592,-1.770
0.004,0.958,0.238,0.244,8.118,-2.136
0.014,0.986,0.211,1.282,8.972,-2.014
0.033,1.006,0.188,2.686,8.484,-1.343
0.027,1.017,0.181,3.174,6.958,-1.038
0.021,1.010,0.186,2.991,5.554,-0.732
0.011,0.992,0.191,2.686,4.883,-0.305
0.000,0.975,0.196,3.052,4.395,0.000
-0.006,0.950,0.193,3.113,3.479,0.183
-0.017,0.928,0.197,2.930,1.831,0.000
-0.022,0.912,0.203,2.075,0.793,0.000
-0.023,0.907,0.209,1.526,0.610,0.122
-0.020,0.911,0.212,1.587,0.549,0.366
-0.010,0.921,0.212,1.282,0.671,0.183
0.000,0.931,0.214,1.404,0.854,-0.305
0.012,0.949,0.223,1.709,0.244,-0.977
0.012,0.951,0.228,2.808,-0.427,-1.709
0.005,0.954,0.228,3.845,-0.977,-1.831
-0.002,0.945,0.230,4.761,-0.732,-1.526
-0.013,0.937,0.228,5.066,-0.183,-1.221
-0.015,0.938,0.219,4.944,0.244,-1.282
-0.019,0.937,0.217,4.761,0.000,-1.404
-0.024,0.930,0.214,4.700,-0.488,-1.648
-0.028,0.926,0.219,3.662,-0.549,-1.221
-0.031,0.925,0.225,2.197,-0.549,-0.549
-0.029,0.923,0.233,1.038,-0.793,-0.183
-0.010,0.943,0.224,0.305,-1.038,-0.061
0.000,0.957,0.214,0.610,-1.709,-0.488
-0.002,0.960,0.210,1.770,-2.441,-0.854
-0.002,0.961,0.216,3.052,-2.380,-0.732
-0.004,0.948,0.225,3.235,-1.709,-0.427
-0.018,0.930,0.232,2.930,-1.343,0.183
-0.026,0.917,0.230,2.808,-0.916,0.549
-0.016,0.926,0.210,2.930,-0.793,0.244
-0.017,0.928,0.194,3.052,-1.587,-0.671
-0.024,0.924,0.198,2.563,-2.319,-1.343
-0.025,0.926,0.215,1.587,-2.014,-1.099
-0.029,0.919,0.233,0.427,-1.404,-0.305
-0.035,0.913,0.243,-0.305,-0.427,0.488
-0.036,0.910,0.243,-0.549,0.366,1.038
-0.014,0.939,0.221,-0.488,0.793,1.160
0.008,0.961,0.203,0.488,0.549,0.244
-0.004,0.957,0.207,0.977,-0.793,-1.038
-0.011,0.953,0.221,1.099,-1.038,-0.854
-0.011,0.944,0.232,1.099,-0.427,-0.061
-0.020,0.927,0.244,0.854,0.305,0.488
-0.030,0.914,0.240,0.732,0.854,0.549
-0.033,0.913,0.226,0.916,1.282,0.244
-0.003,0.939,0.197,1.465,1.404,-0.122
-0.006,0.936,0.199,1.465,0.366,-0.854
-0.018,0.936,0.216,0.061,-0.366,-0.732
-0.017,0.933,0.229,-0.854,-0.061,0.305
-0.029,0.924,0.228,-1.404,0.549,1.282
-0.036,0.919,0.225,-1.831,1.099,1.465
-0.012,0.938,0.211,-1.892,1.587,0.977
-0.009,0.943,0.215,-1.465,0.977,0.000
-0.014,0.942,0.223,-1.221,0.488,-0.427
-0.015,0.941,0.230,-1.160,0.916,-0.244
-0.017,0.938,0.229,-1.221,1.648,0.122
-0.018,0.941,0.221,-1.038,2.014,0.610
-0.007,0.951,0.204,-0.122,1.709,0.549
-0.006,0.956,0.204,0.916,0.916,0.549
-0.007,0.959,0.207,1.160,0.427,0.427
-0.009,0.947,0.219,0.854,0.244,0.122
-0.017,0.935,0.224,0.000,0.061,0.122
-0.024,0.924,0.227,-0.122,-0.183,0.244
-0.015,0.931,0.214,-0.183,0.000,0.366
-0.015,0.937,0.209,-0.305,-0.366,-0.122
-0.018,0.934,0.211,-0.488,-0.854,-0.549
-0.020,0.938,0.214,-0.549,-0.916,-0.427
-0.017,0.937,0.218,-0.061,-0.732,-0.122
-0.022,0.933,0.221,0.244,-0.305,0.610
-0.020,0.943,0.217,0.183,0.061,0.916
-0.005,0.948,0.211,0.183,0.000,0.427
-0.005,0.950,0.210,0.366,-0.549,-0.244
-0.007,0.947,0.214,0.732,-1.465,-0.671
-0.011,0.942,0.218,0.977,-1.648,-0.488
-0.018,0.934,0.221,0.671,-1.587,-0.061
-0.017,0.935,0.214,0.610,-1.404,0.244
-0.015,0.932,0.211,1.038,-1.404,0.122
-0.020,0.931,0.211,1.221,-1.404,-0.061
-0.021,0.938,0.210,1.221,-1.221,0.183
-0.017,0.941,0.215,0.854,-0.977,0.183
-0.014,0.938,0.218,0.427,-0.793,-0.122

4.000,-3.025,4.000,-475.159,486.755,13.916
2.344,4.000,0.388,-500.916,108.215,136.230
-1.383,3.040,1.622,-252.502,-103.943,250.305
0.373,1.294,0.166,-19.226,-19.409,98.022
1.445,1.855,-0.855,88.379,41.199,-71.350
1.375,1.944,-0.918,118.042,23.499,-144.592
0.401,1.092,0.023,48.096,-12.146,-127.441
0.171,0.897,-0.159,-15.869,27.283,-8.301
0.103,0.835,0.096,13.000,23.193,72.693
-0.141,0.930,0.408,60.486,-5.127,69.214
-0.222,0.636,0.315,63.660,3.784,13.062
-0.178,0.548,0.106,54.443,9.033,-5.249
-0.153,0.583,-0.021,50.842,-3.906,-4.028
-0.170,0.626,0.027,42.542,-23.071,-4.456
-0.178,0.668,0.094,21.057,-28.259,-0.916
-0.129,0.716,0.158,-3.662,-21.606,5.920
-0.073,0.803,0.225,-17.517,-15.442,9.521
-0.042,0.917,0.280,-18.921,-12.390,7.996
0.006,0.955,0.266,-22.339,-6.653,1.465
0.039,1.011,0.231,-18.433,-2.563,1.770
0.053,1.071,0.186,-9.338,-1.587,2.930
0.076,1.132,0.146,-2.686,-0.916,0.305
0.100,1.166,0.141,5.127,-1.343,-3.662
0.093,1.144,0.147,14.160,-2.869,-6.409
0.068,1.095,0.149,20.203,-3.174,-7.507
0.036,1.030,0.148,21.912,-3.235,-6.287
0.005,0.949,0.156,22.217,-3.540,-4.089
-0.031,0.886,0.161,23.499,-3.906,-0.244
-0.060,0.845,0.181,22.217,-4.150,3.784
-0.064,0.826,0.197,18.677,-3.479,5.615
-0.031,0.857,0.189,13.916,-2.625,4.639
-0.028,0.839,0.192,8.789,-2.686,1.221
-0.035,0.839,0.199,5.249,-1.953,-0.916
-0.016,0.876,0.225,2.869,1.587,-0.671
0.002,0.897,0.234,0.305,5.615,0.000
0.008,0.911,0.236,-0.732,8.484,0.122
0.015,0.928,0.233,-0.671,10.437,0.305
0.026,0.959,0.215,-0.427,12.207,0.732
0.062,1.007,0.164,0.610,12.634,0.610
0.094,1.042,0.109,1.221,10.132,-0.427
0.075,1.048,0.107,1.892,5.798,-1.648
0.054,1.036,0.137,2.319,3.235,-1.282
0.048,1.014,0.171,2.686,2.563,0.427
0.038,0.980,0.192,2.930,2.075,1.892
0.027,0.944,0.200,3.601,1.587,2.563
0.014,0.918,0.200,3.845,0.854,2.319
0.018,0.913,0.192,4.272,0.427,1.526
0.034,0.930,0.173,4.456,-0.061,0.122
0.029,0.945,0.149,4.639,-1.526,-1.160
0.022,0.938,0.156,5.371,-3.479,-1.831
0.015,0.932,0.190,5.615,-3.601,-1.343
0.021,0.936,0.212,4.883,-1.953,-0.244
0.043,0.957,0.208,4.944,-0.488,0.305
0.059,0.977,0.198,6.042,-0.671,-0.366
0.055,0.980,0.193,7.812,-1.892,-1.709
0.041,0.969,0.193,9.216,-3.296,-2.808
0.029,0.951,0.193,9.888,-4.089,-2.991
0.013,0.929,0.202,9.644,-4.089,-2.319
-0.001,0.910,0.209,8.728,-3.479,-1.587
-0.004,0.908,0.213,7.568,-2.075,-1.038
0.005,0.917,0.209,7.202,-0.732,-1.038
0.006,0.928,0.208,6.836,-0.366,-1.709
0.010,0.928,0.196,6.226,-0.305,-2.014
0.009,0.926,0.188,5.493,-0.916,-2.197
0.002,0.924,0.192,4.456,-1.709,-1.770
0.004,0.928,0.188,2.502,-1.831,-0.977
0.007,0.932,0.191,1.038,-1.648,-0.305
0.002,0.927,0.201,0.244,-1.587,-0.183
-0.004,0.921,0.210,-0.488,-1.038,-0.061
-0.001,0.925,0.209,-1.038,-0.183,0.122
0.005,0.929,0.204,-0.732,0.427,0.183
0.006,0.933,0.205,-0.793,0.854,0.061
0.010,0.938,0.203,-1.038,1.343,0.305
0.013,0.943,0.204,-1.099,1.709,0.549
0.018,0.944,0.204,-1.160,2.075,0.488
0.022,0.947,0.202,-1.099,2.258,0.488
0.025,0.953,0.199,-0.854,1.953,0.549
0.032,0.959,0.192,-0.610,1.526,0.427
0.032,0.962,0.196,0.000,1.038,0.244
0.036,0.961,0.198,0.671,0.854,0.000
0.040,0.965,0.193,1.465,0.977,0.183
0.037,0.961,0.193,1.892,0.671,0.305
0.023,0.943,0.201,1.831,0.183,0.061
0.013,0.927,0.206,1.648,0.122,0.183
0.011,0.923,0.202,1.587,0.305,0.244
0.012,0.923,0.198,1.282,0.427,-0.061
0.007,0.922,0.196,0.488,0.183,-0.305
0.006,0.931,0.198,-0.488,0.366,-0.366
0.018,0.942,0.193,-0.977,0.549,-0.366
0.022,0.950,0.198,-1.099,0.488,-0.305
0.025,0.960,0.203,-0.854,0.732,-0.183
0.035,0.971,0.199,0.244,0.732,-0.122
0.033,0.963,0.201,1.160,0.305,-0.488
0.028,0.958,0.200,1.709,0.244,-0.916
0.026,0.955,0.192,2.319,-0.183,-1.160
0.017,0.941,0.192,2.625,-0.610,-1.221
0.006,0.929,0.198,2.319,-0.916,-0.977
0.007,0.930,0.203,1.892,-0.610,-0.427
0.006,0.927,0.200,1.648,-0.366,-0.244
0.004,0.927,0.199,1.587,-0.427,-0.122
0.002,0.924,0.206,1.221,-0.305,0.183
0.013,0.933,0.199,0.854,0.061,0.122
0.020,0.941,0.196,0.793,0.122,0.122
0.025,0.949,0.191,0.610,-0.183,-0.183
0.023,0.948,0.193,0.488,-0.488,-0.305
0.025,0.951,0.195,0.122,-0.854,-0.183
0.027,0.950,0.201,0.000,-1.099,0.000
0.021,0.943,0.204,0.244,-1.282,0.000
0.020,0.945,0.205,0.610,-1.404,-0.122
0.024,0.943,0.200,1.160,-1.282,-0.366
0.019,0.937,0.199,1.465,-1.282,-0.610
0.015,0.937,0.198,1.343,-1.099,-0.488
0.016,0.935,0.195,1.160,-0.671,-0.183
0.015,0.935,0.198,0.854,-0.427,0.061
0.021,0.943,0.198,0.732,-0.427,0.183
0.023,0.947,0.198,1.221,-0.366,0.061
0.024,0.946,0.202,1.160,-0.488,-0.122
0.023,0.946,0.199,1.038,-0.610,-0.427
0.025,0.949,0.194,1.160,-0.854,-0.366

4.000,0.670,4.000,-698.303,411.194,35.461
1.030,4.000,0.352,-325.256,-39.063,193.970
-1.170,1.525,1.167,-201.904,-85.388,192.627
0.854,1.583,-0.143,-32.349,26.550,36.011
1.412,2.499,-0.536,-3.113,60.913,-96.741
1.283,1.889,-0.916,57.556,40.833,-136.047
0.329,0.820,-0.351,59.814,-19.409,-121.765
0.148,0.996,-0.321,29.724,-8.118,11.353
0.023,1.022,0.124,73.303,-7.202,58.960
-0.212,0.676,0.402,103.699,-10.254,17.334
-0.126,0.475,0.309,90.027,5.737,-18.555
-0.186,0.549,0.199,52.063,3.235,-7.141
-0.187,0.640,0.114,23.254,-9.521,13.367
-0.156,0.744,0.023,13.550,-19.592,19.592
-0.084,0.706,0.101,9.705,-28.687,11.841
-0.107,0.754,0.187,6.775,-32.227,14.038
-0.069,0.817,0.240,-2.808,-20.935,15.259
-0.010,0.850,0.231,-10.864,-4.761,16.602
0.017,1.025,0.211,-6.409,2.075,26.245
0.020,1.067,0.198,-3.052,1.892,18.188
0.031,1.064,0.139,-3.113,2.380,0.854
0.035,1.096,0.125,3.784,-1.587,-6.470
0.034,1.083,0.105,9.949,-4.150,-12.512
0.041,1.081,0.098,14.709,-4.822,-12.085
0.040,1.066,0.112,18.311,-6.531,-9.277
0.032,1.026,0.113,19.653,-7.324,-7.202
0.008,0.970,0.134,18.066,-7.385,-4.700
-0.022,0.917,0.156,15.381,-7.507,-1.404
-0.034,0.879,0.162,13.000,-6.409,1.953
-0.036,0.865,0.168,10.864,-5.432,4.700
-0.039,0.864,0.173,8.301,-4.028,5.310
-0.014,0.878,0.197,5.737,-2.441,4.028
-0.006,0.877,0.209,2.930,-0.854,1.465
-0.006,0.901,0.193,2.075,0.854,-0.732
0.011,0.926,0.187,2.930,3.296,-2.258
0.027,0.950,0.175,3.418,5.066,-3.540
0.029,0.976,0.169,3.235,5.798,-3.906
0.038,0.996,0.163,3.723,6.042,-3.845
0.037,1.002,0.154,4.211,5.249,-3.784
0.031,0.996,0.146,4.761,4.456,-2.930
0.023,0.986,0.144,5.127,3.723,-2.014
0.015,0.968,0.147,5.432,2.197,-1.465
0.007,0.951,0.154,5.493,0.549,-0.793
0.007,0.941,0.158,5.249,-0.366,-0.244
0.004,0.926,0.165,4.211,-0.854,-0.183
0.001,0.921,0.172,2.563,-0.977,0.122
0.009,0.931,0.173,1.404,-0.610,0.061
0.014,0.941,0.167,1.404,-0.488,-0.366
0.017,0.951,0.167,2.563,-0.671,-0.732
0.019,0.958,0.171,3.906,-0.854,-0.549
0.022,0.957,0.175,4.333,-0.854,-0.427
0.021,0.955,0.181,4.272,-0.488,-0.183
0.019,0.959,0.183,4.028,-0.244,0.000
0.017,0.949,0.184,3.967,-0.183,-0.122
0.017,0.944,0.182,3.723,-0.183,-0.366
0.009,0.937,0.180,3.479,-0.732,-0.427
0.006,0.939,0.179,3.052,-1.343,-0.916
0.018,0.950,0.177,3.662,-1.709,-1.526
0.011,0.941,0.181,4.456,-2.136,-2.075
0.001,0.932,0.190,4.883,-2.014,-2.075
0.002,0.937,0.189,5.005,-1.038,-1.587
0.010,0.942,0.181,5.371,-0.244,-1.282
0.009,0.935,0.174,5.676,0.061,-1.343
-0.000,0.924,0.187,5.005,-0.122,-1.343
0.007,0.933,0.187,3.601,0.122,-0.854
0.017,0.943,0.183,2.686,0.122,-0.671
0.014,0.947,0.177,2.258,-0.427,-0.732
0.008,0.945,0.175,2.014,-0.793,-0.610
0.002,0.941,0.179,1.465,-0.671,-0.305
0.003,0.939,0.183,0.488,-0.366,0.183
0.017,0.948,0.182,0.549,-0.122,0.305
0.012,0.943,0.189,0.977,-0.305,0.061
0.004,0.941,0.192,0.977,-0.244,0.061
0.010,0.942,0.193,1.404,0.427,0.061
0.017,0.950,0.184,1.160,0.854,-0.183
0.020,0.954,0.176,1.404,0.916,-0.488
0.022,0.957,0.178,1.831,0.305,-0.549
0.014,0.950,0.188,1.831,-0.305,-0.671
0.009,0.942,0.191,1.587,-0.122,0.061
0.012,0.950,0.180,1.465,0.549,0.488
0.014,0.949,0.170,1.770,0.671,0.549
0.001,0.933,0.174,1.892,0.366,0.366
-0.004,0.928,0.183,1.221,0.244,0.671
-0.011,0.919,0.186,0.488,0.732,1.099
-0.011,0.921,0.179,0.000,1.282,1.587
0.010,0.939,0.157,0.366,1.404,1.831
0.021,0.938,0.154,0.183,0.427,1.160
0.012,0.946,0.172,-0.549,-0.793,0.427
0.012,0.957,0.192,-0.793,-0.977,0.488
0.022,0.961,0.187,-0.916,-0.610,0.671
0.035,0.976,0.166,-0.183,-0.916,0.671
0.029,0.976,0.155,1.038,-1.648,-0.183
0.013,0.961,0.155,1.343,-1.648,-1.038
0.006,0.950,0.171,2.136,-1.221,-1.160
0.005,0.936,0.199,2.625,-0.488,-0.854
0.003,0.931,0.206,1.709,0.549,-0.977
0.006,0.937,0.192,1.587,1.282,-1.160
0.002,0.934,0.180,1.953,1.343,-1.099
-0.001,0.938,0.176,1.404,1.404,-1.221
0.006,0.949,0.178,1.038,1.587,-1.038
0.012,0.950,0.177,0.916,1.770,-0.793
0.014,0.950,0.179,0.732,1.526,-0.610
0.016,0.960,0.181,0.854,1.282,-0.366
0.021,0.956,0.179,1.343,1.282,-0.488
0.023,0.958,0.183,1.709,0.977,-0.732
0.024,0.959,0.182,2.014,0.854,-0.916
0.024,0.954,0.177,2.197,0.671,-1.221
0.023,0.954,0.178,2.319,0.000,-1.343
0.016,0.952,0.185,2.502,-0.610,-1.404
0.015,0.946,0.190,2.563,-0.610,-1.465
0.019,0.951,0.185,2.808,-0.610,-1.526
0.008,0.943,0.182,2.686,-0.732,-1.953
0.006,0.935,0.186,2.197,-0.427,-2.075
0.008,0.927,0.191,1.099,-0.061,-2.014
0.007,0.932,0.195,0.671,0.610,-2.075
0.021,0.945,0.184,0.793,0.854,-2.136
0.021,0.953,0.178,1.648,0.671,-2.563
0.012,0.942,0.172,1.831,0.366,-3.235
0.008,0.938,0.178,1.587,0.366,-2.991

4.000,-1.862,4.000,-997.192,766.663,35.706
3.250,4.000,-0.257,-597.595,355.347,231.384
-0.721,3.278,2.235,-227.051,-123.535,233.459
0.744,1.624,-0.436,-42.114,2.869,76.843
1.679,2.288,-1.557,158.447,24.048,-104.248
0.888,1.933,-0.362,113.770,-75.134,-206.299
0.523,0.965,0.103,124.329,-78.430,-223.389
0.155,0.482,0.117,59.326,-12.573,-116.150
0.024,0.458,0.171,-1.343,46.082,73.425
-0.075,0.506,0.267,7.874,58.838,160.767
-0.253,0.821,0.200,33.508,48.218,177.551
-0.270,0.790,0.181,37.903,17.273,117.676
-0.258,0.588,0.083,37.476,-6.470,54.565
-0.259,0.612,0.058,32.532,-25.452,34.485
-0.254,0.655,0.105,19.348,-34.058,19.409
-0.182,0.699,0.184,9.277,-27.893,2.869
-0.104,0.797,0.237,5.371,-15.015,-10.620
-0.052,0.919,0.262,3.845,-4.333,-22.644
0.012,0.988,0.285,4.028,-2.686,-33.325
0.065,1.021,0.255,11.169,-6.653,-37.964
0.078,1.038,0.248,17.395,-13.489,-32.959
0.067,1.108,0.252,13.672,-15.259,-17.517
0.060,1.136,0.228,6.775,-7.812,-7.324
0.052,1.106,0.189,3.784,1.282,-6.897
0.032,1.066,0.168,3.479,6.226,-7.080
0.011,0.998,0.181,3.235,5.249,-5.127
-0.014,0.925,0.172,3.784,2.991,-1.526
-0.044,0.879,0.181,4.395,-1.343,3.906
-0.063,0.860,0.196,5.188,-5.554,7.935
-0.070,0.853,0.214,4.761,-7.568,7.202
-0.072,0.826,0.229,2.258,-7.080,2.991
-0.072,0.821,0.237,-0.854,-4.761,0.183
-0.051,0.851,0.241,-3.601,-2.625,-0.671
-0.016,0.897,0.228,-5.188,-0.061,-1.465
0.011,0.948,0.223,-5.066,2.258,-2.319
0.021,0.973,0.231,-4.028,3.479,-2.319
0.026,0.986,0.229,-2.502,4.944,-1.404
0.031,1.000,0.211,-1.099,5.676,-0.366
0.031,1.000,0.189,0.549,5.493,-0.122
0.019,0.995,0.167,2.380,3.906,-0.427
0.007,0.976,0.170,3.723,1.953,-0.549
-0.008,0.957,0.177,4.211,0.916,0.000
-0.013,0.946,0.183,4.150,1.038,0.977
-0.010,0.935,0.183,3.174,1.343,1.587
-0.005,0.931,0.178,2.319,1.099,1.465
-0.010,0.923,0.181,1.221,0.122,1.160
-0.016,0.911,0.188,-0.305,-0.671,1.099
-0.014,0.915,0.191,-0.732,-0.916,1.526
0.003,0.936,0.187,-0.549,-1.038,1.648
0.007,0.946,0.194,-0.244,-1.648,1.038
0.009,0.949,0.206,0.732,-1.953,0.793
0.005,0.950,0.215,1.587,-1.465,0.732
-0.001,0.945,0.220,2.075,-0.793,0.549
-0.003,0.954,0.205,2.258,-0.122,0.244
0.018,0.965,0.181,2.991,0.000,-0.549
0.001,0.957,0.189,3.174,-1.343,-1.404
-0.009,0.951,0.205,3.113,-2.136,-1.465
-0.014,0.937,0.218,3.357,-1.770,-1.038
-0.027,0.927,0.223,3.296,-0.916,-0.732
-0.037,0.917,0.222,3.479,-0.183,-0.854
-0.035,0.920,0.194,3.784,0.610,-0.854
-0.019,0.930,0.175,3.601,0.610,-0.793
-0.011,0.937,0.178,2.380,-0.183,-1.099
-0.010,0.938,0.195,1.038,-1.221,-0.916
-0.013,0.940,0.209,0.366,-1.770,-0.305
-0.020,0.939,0.219,0.183,-1.404,0.244
-0.003,0.960,0.197,1.160,-0.488,0.549
0.013,0.963,0.174,2.502,-0.488,0.183
0.000,0.960,0.184,3.113,-1.465,-0.610
-0.005,0.952,0.204,3.601,-2.014,-0.488
-0.005,0.946,0.215,3.906,-1.648,-0.061
-0.009,0.940,0.214,3.540,-0.977,0.122
-0.012,0.937,0.204,3.235,-0.366,0.061
-0.020,0.930,0.203,3.113,-0.061,0.000
-0.027,0.924,0.200,3.540,-0.122,-0.183
-0.019,0.928,0.197,3.845,0.000,-0.183
-0.009,0.930,0.201,3.357,0.061,-0.488
-0.022,0.926,0.212,1.709,-0.488,-0.732
-0.019,0.932,0.215,0.549,-0.305,-0.183
-0.023,0.928,0.216,0.610,-0.061,0.305
-0.031,0.921,0.216,0.854,0.610,0.488
-0.019,0.937,0.204,1.099,1.648,0.488
0.002,0.955,0.190,1.282,2.075,-0.061
0.003,0.955,0.190,1.343,1.465,-0.977
-0.004,0.953,0.204,0.916,0.916,-1.282
-0.003,0.947,0.212,0.610,0.793,-0.854
-0.004,0.945,0.218,0.244,0.977,-0.183
0.002,0.952,0.210,0.793,1.099,0.000
0.006,0.955,0.204,1.831,0.793,-0.305
0.000,0.949,0.210,2.686,0.366,-1.160
-0.005,0.943,0.211,2.991,0.488,-1.465
0.000,0.956,0.203,3.357,0.610,-1.526
0.004,0.949,0.197,3.479,0.610,-1.648
-0.005,0.942,0.204,2.808,0.122,-1.648
-0.014,0.932,0.216,2.441,-0.305,-1.221
-0.018,0.928,0.221,2.625,-0.061,-0.916
-0.011,0.933,0.208,2.563,0.183,-0.977
-0.006,0.935,0.201,2.625,-0.061,-1.343
-0.013,0.929,0.204,2.075,-0.488,-1.648
-0.018,0.926,0.218,1.587,-0.488,-1.404
-0.019,0.920,0.225,1.282,-0.549,-0.916
-0.024,0.919,0.227,0.793,-0.061,-0.488
-0.021,0.927,0.221,0.366,0.427,-0.244
0.001,0.949,0.194,1.038,0.488,-0.488
0.004,0.958,0.185,1.404,-0.671,-1.221
0.012,0.958,0.205,1.282,-1.648,-1.648
-0.035,0.943,0.232,0.061,-2.686,-1.404
0.023,0.928,0.202,-1.892,-2.380,0.061
-0.010,0.934,0.248,1.587,-1.160,0.610
-0.014,0.940,0.216,1.831,-1.526,0.305
0.010,0.938,0.205,2.258,-0.793,-0.549
-0.002,0.937,0.206,2.502,-0.549,-0.977
-0.014,0.928,0.216,1.648,-0.488,-1.099
-0.014,0.918,0.221,0.916,-0.305,-0.732
-0.023,0.914,0.228,-0.061,0.427,0.000
-0.019,0.920,0.226,-0.793,1.343,0.366
0.008,0.950,0.205,-0.366,1.892,0.000
0.008,0.958,0.193,0.549,1.282,-1.038
0.000,0.957,0.197,0.427,0.183,-1.587

3.962,3.307,3.261,-494.385,239.929,13.367
-0.239,2.854,0.714,-252.014,-44.922,98.267
-0.659,1.594,0.534,-116.760,-110.840,25.024
0.781,0.928,-0.357,14.465,-31.311,-34.180
0.766,0.998,-0.841,14.832,24.170,-19.470
0.342,1.150,-0.625,-16.174,18.738,14.771
0.267,1.413,-0.304,17.334,6.592,28.564
0.208,1.178,0.087,40.833,3.784,-1.038
0.119,1.063,0.168,63.171,3.540,-33.020
0.064,0.845,0.387,77.881,-7.996,-34.363
-0.095,0.812,0.311,51.636,-5.798,-2.136
-0.122,0.710,0.151,29.663,-0.793,13.184
-0.132,0.692,0.060,18.188,-6.836,16.113
-0.116,0.749,0.053,9.888,-14.526,13.245
-0.078,0.781,0.090,1.221,-16.785,12.390
-0.041,0.843,0.127,-4.333,-17.273,13.062
-0.016,0.883,0.168,-8.728,-17.944,9.338
-0.003,0.937,0.194,-10.742,-15.686,6.104
0.012,0.990,0.210,-8.728,-11.414,5.310
0.054,1.024,0.202,-5.127,-7.141,4.028
0.076,1.049,0.181,-1.648,-3.906,2.930
0.080,1.053,0.158,2.136,-2.014,2.136
0.071,1.042,0.145,6.470,-1.221,1.465
0.066,1.031,0.128,10.376,-0.916,0.732
0.056,1.002,0.126,13.672,-1.282,-0.549
0.031,0.974,0.133,14.954,-1.465,-1.648
0.018,0.944,0.139,15.076,-1.587,-1.770
-0.002,0.910,0.155,14.709,-1.953,-1.709
-0.008,0.898,0.157,12.512,-1.221,-0.916
-0.008,0.894,0.165,9.888,-0.244,-0.732
-0.009,0.901,0.174,8.179,0.427,-0.916
0.008,0.923,0.170,6.470,1.709,-1.343
0.020,0.939,0.171,5.920,2.747,-2.136
0.020,0.953,0.177,5.676,3.784,-2.197
0.026,0.961,0.177,5.493,5.432,-1.526
0.025,0.960,0.173,5.554,6.958,-0.671
0.041,0.981,0.144,5.371,7.935,0.061
0.048,0.982,0.117,5.432,7.141,-0.061
0.029,0.983,0.115,5.188,5.310,-0.183
0.024,0.968,0.129,4.089,3.967,0.427
0.013,0.946,0.148,2.747,3.357,1.282
0.001,0.933,0.156,1.831,2.808,1.587
0.023,0.948,0.134,1.282,2.014,1.770
0.040,0.952,0.124,1.343,0.671,1.282
0.034,0.957,0.134,0.610,-0.916,0.427
0.031,0.950,0.156,-0.244,-1.343,0.488
0.022,0.940,0.173,-0.488,-1.465,1.099
0.022,0.940,0.174,-0.244,-0.916,1.465
0.040,0.956,0.158,0.427,-0.305,1.099
0.049,0.972,0.145,1.709,-0.916,0.000
0.043,0.974,0.150,2.686,-2.075,-0.916
0.031,0.962,0.158,3.174,-2.197,-0.854
0.018,0.951,0.175,2.930,-1.343,-0.122
0.003,0.944,0.178,3.052,-0.549,0.427
0.005,0.945,0.149,2.686,-0.305,0.183
0.022,0.955,0.131,3.174,-1.160,-0.366
0.015,0.949,0.147,2.991,-2.686,-0.854
0.009,0.942,0.164,2.136,-3.601,-0.610
0.005,0.935,0.172,1.343,-3.906,0.244
-0.002,0.928,0.167,0.427,-3.296,0.916
0.020,0.958,0.137,-0.061,-2.502,0.854
0.052,0.975,0.116,0.610,-2.686,-0.366
0.040,0.980,0.125,1.404,-3.479,-1.648
0.031,0.977,0.153,1.404,-3.174,-1.465
0.024,0.960,0.172,2.075,-2.380,-0.671
0.011,0.938,0.179,2.747,-1.648,0.000
0.002,0.928,0.173,3.052,-0.977,0.122
0.005,0.930,0.159,3.052,-0.427,-0.305
0.027,0.950,0.138,2.869,-0.488,-0.977
0.028,0.958,0.138,2.563,-1.343,-1.465
0.012,0.961,0.146,2.258,-2.197,-1.343
0.014,0.958,0.152,1.892,-2.075,-0.610
0.014,0.961,0.156,1.465,-1.221,0.000
0.013,0.957,0.161,1.587,-0.427,0.305
0.013,0.949,0.158,2.136,-0.244,0.244
0.014,0.947,0.154,2.380,-0.183,-0.122
0.014,0.940,0.148,2.380,-0.122,-0.244
0.009,0.938,0.148,2.014,-0.244,-0.122
0.015,0.944,0.155,1.648,-0.244,0.305
0.011,0.938,0.165,1.099,-0.183,0.610
0.012,0.944,0.164,0.854,0.244,0.732
0.030,0.956,0.151,0.854,0.427,0.427
0.033,0.963,0.143,1.099,-0.122,-0.366
0.029,0.965,0.144,1.282,-0.732,-0.793
0.024,0.956,0.151,1.648,-1.343,-0.427
0.015,0.948,0.162,1.709,-1.343,-0.061
0.014,0.946,0.166,2.197,-0.793,0.244
0.025,0.947,0.161,2.930,-0.549,0.061
0.018,0.946,0.150,3.052,-0.793,-0.488
0.019,0.948,0.148,3.296,-1.160,-0.793
0.023,0.953,0.161,3.235,-1.282,-1.160
0.026,0.959,0.166,2.869,-1.221,-1.404
0.028,0.965,0.166,3.357,-1.343,-1.465
0.026,0.961,0.166,3.967,-1.160,-1.892
0.023,0.958,0.165,4.272,-0.977,-2.075
0.021,0.947,0.166,3.845,-0.977,-1.770
0.009,0.939,0.169,3.296,-1.160,-1.343
0.013,0.937,0.168,2.747,-1.038,-0.916
0.013,0.938,0.167,2.197,-1.282,-0.610
0.009,0.938,0.167,1.465,-1.587,-0.671
0.013,0.942,0.167,1.038,-1.770,-0.549
0.012,0.941,0.173,0.793,-1.831,-0.427
0.013,0.942,0.176,0.793,-1.526,-0.366
0.016,0.944,0.176,0.793,-1.099,-0.122
0.019,0.942,0.167,0.366,-1.038,-0.061
0.016,0.944,0.167,0.183,-1.343,0.122
0.021,0.950,0.167,0.061,-1.221,0.244
0.032,0.959,0.167,0.122,-1.099,0.183
0.036,0.964,0.166,0.671,-1.465,-0.061
0.026,0.958,0.169,1.526,-1.648,-0.183
0.021,0.956,0.166,1.709,-1.282,0.183
0.022,0.950,0.164,1.770,-1.160,0.427
0.018,0.943,0.168,1.831,-1.282,0.549
0.012,0.931,0.173,1.526,-1.343,0.549
0.011,0.934,0.172,1.099,-1.038,0.732
0.023,0.944,0.162,0.916,-1.099,0.549
0.016,0.950,0.163,0.854,-1.343,0.061
0.014,0.951,0.164,0.366,-1.160,0.000
0.016,0.948,0.167,0.122,-0.610,0.244

4.000,-1.363,4.000,-400.513,367.187,-25.330
2.310,3.993,1.483,-474.854,75.928,73.669
-1.292,2.550,1.090,-269.714,-67.444,169.678
0.405,2.005,-0.135,-75.073,-25.879,77.087
1.376,1.659,-0.825,45.105,18.005,-66.467
0.884,1.373,-0.707,67.810,16.113,-139.709
0.388,1.165,-0.297,-0.061,8.606,-95.642
0.384,1.241,-0.506,7.141,26.733,8.850
0.269,1.153,0.069,48.828,-0.122,39.246
-0.060,0.783,0.406,86.304,-22.644,19.287
-0.160,0.544,0.273,87.219,-6.042,-3.784
-0.161,0.537,0.248,68.420,-1.038,-2.563
-0.162,0.616,0.105,23.743,2.686,15.625
-0.120,0.701,0.038,2.747,-2.380,22.034
-0.061,0.771,0.054,-5.005,-15.198,16.052
-0.022,0.816,0.109,-9.094,-24.841,9.399
-0.003,0.888,0.172,-13.672,-25.024,8.484
0.025,0.990,0.208,-13.794,-17.883,7.812
0.063,1.060,0.216,-8.301,-8.606,3.845
0.102,1.072,0.187,-1.465,-0.854,-2.136
0.111,1.064,0.138,5.737,3.113,-4.211
0.105,1.057,0.114,11.536,2.625,-3.906
0.087,1.046,0.109,15.076,0.427,-2.136
0.069,1.010,0.118,17.944,-2.075,-1.038
0.047,0.965,0.127,20.569,-3.784,-0.671
0.027,0.931,0.128,22.827,-4.639,-0.671
0.014,0.894,0.122,24.414,-4.944,0.061
0.002,0.891,0.125,21.790,-4.639,1.404
-0.003,0.876,0.142,15.503,-4.456,1.221
-0.007,0.875,0.159,10.315,-4.822,0.244
-0.001,0.887,0.173,6.226,-4.883,-0.732
0.009,0.904,0.178,3.296,-4.333,-1.587
0.026,0.933,0.177,1.465,-2.991,-2.380
0.042,0.961,0.179,0.977,-1.404,-3.296
0.049,0.981,0.175,1.587,0.244,-3.906
0.062,0.992,0.166,3.052,1.770,-3.967
0.057,0.994,0.158,4.822,2.319,-3.906
0.061,0.997,0.139,5.859,2.319,-3.845
0.045,0.986,0.134,6.592,1.465,-3.601
0.027,0.968,0.132,6.470,0.732,-3.113
0.017,0.955,0.130,4.517,0.671,-2.075
0.012,0.940,0.124,2.380,0.427,-1.038
0.008,0.930,0.130,0.732,-0.122,-0.427
0.012,0.926,0.136,-1.099,-0.488,0.000
0.019,0.932,0.141,-2.075,-0.671,0.000
0.027,0.941,0.147,-2.136,-1.160,-0.305
0.031,0.946,0.154,-1.404,-1.404,-0.488
0.037,0.952,0.154,-0.549,-1.099,-0.427
0.049,0.965,0.153,0.854,-0.488,-0.488
0.043,0.965,0.157,2.502,-0.305,-0.305
0.037,0.960,0.156,3.235,0.305,-0.244
0.038,0.958,0.154,3.601,0.732,-0.244
0.028,0.950,0.155,3.906,0.671,-0.549
0.027,0.950,0.152,4.272,0.671,-0.916
0.026,0.950,0.156,4.822,0.671,-1.282
0.017,0.945,0.160,4.761,0.732,-1.404
0.021,0.947,0.160,4.883,1.282,-1.099
0.037,0.963,0.145,4.639,1.648,-0.977
0.042,0.967,0.139,4.700,0.916,-1.221
0.031,0.964,0.142,4.150,-0.122,-1.343
0.038,0.965,0.145,3.967,-0.488,-1.221
0.039,0.963,0.147,3.662,-0.488,-1.099
0.030,0.955,0.145,3.174,-0.671,-1.038
0.022,0.944,0.146,2.808,-0.793,-1.099
0.021,0.945,0.153,2.686,-1.160,-0.854
0.023,0.941,0.156,2.747,-0.671,-0.488
0.021,0.939,0.156,2.869,-0.427,-0.305
0.034,0.951,0.147,2.625,-0.305,-0.427
0.035,0.951,0.146,2.930,-0.610,-0.854
0.028,0.953,0.150,3.052,-0.977,-0.916
0.020,0.946,0.159,3.113,-0.854,-0.549
0.009,0.932,0.165,2.686,-0.427,-0.244
0.013,0.933,0.163,2.014,0.061,0.183
0.025,0.944,0.149,1.221,0.610,0.122
0.038,0.955,0.149,0.732,0.671,-0.305
0.032,0.962,0.153,0.916,0.183,-0.732
0.026,0.961,0.158,1.282,0.122,-0.427
0.026,0.956,0.161,1.709,0.488,0.061
0.028,0.953,0.170,2.014,0.732,0.549
0.041,0.958,0.165,2.380,0.549,0.488
0.047,0.967,0.149,2.808,-0.183,0.000
0.047,0.962,0.142,3.235,-1.282,-0.732
0.030,0.953,0.143,2.563,-2.319,-1.099
0.020,0.942,0.154,2.258,-2.502,-0.671
0.015,0.932,0.165,1.892,-1.221,-0.122
0.021,0.934,0.165,1.526,-0.122,0.122
0.026,0.940,0.161,1.526,0.305,-0.122
0.017,0.938,0.167,1.587,0.427,-0.610
0.019,0.939,0.171,1.465,0.977,-0.549
0.025,0.942,0.171,1.160,1.648,-0.305
0.030,0.947,0.157,1.038,1.892,-0.244
0.036,0.952,0.153,0.732,1.648,-0.427
0.044,0.966,0.148,0.732,1.343,-0.366
0.046,0.967,0.152,1.038,0.977,-0.061
0.034,0.960,0.165,1.099,0.549,0.244
0.024,0.948,0.173,1.221,0.549,0.549
0.021,0.942,0.168,1.526,1.038,0.732
0.024,0.939,0.161,1.648,1.038,0.427
0.019,0.938,0.162,1.953,0.916,-0.061
0.021,0.938,0.162,1.831,1.038,-0.244
0.019,0.941,0.169,1.892,1.343,-0.183
0.021,0.940,0.172,1.587,1.953,0.061
0.022,0.947,0.171,1.892,2.197,0.183
0.045,0.963,0.157,2.380,2.197,-0.122
0.053,0.973,0.157,3.235,1.892,-0.610
0.057,0.980,0.162,4.211,1.587,-1.282
0.053,0.974,0.166,5.493,1.526,-1.526
0.040,0.961,0.163,6.348,1.404,-1.465
0.046,0.951,0.150,6.531,1.221,-1.404
0.040,0.938,0.153,5.676,0.366,-1.587
0.029,0.932,0.163,4.395,-0.488,-1.648
0.024,0.930,0.174,3.296,-0.793,-1.465
0.022,0.928,0.179,2.869,-0.610,-1.404
0.031,0.936,0.178,2.747,-0.244,-1.465
0.040,0.945,0.171,2.441,0.183,-1.709
0.041,0.951,0.169,2.075,0.122,-2.136
0.042,0.954,0.170,1.953,-0.061,-2.319
0.045,0.960,0.169,1.953,0.061,-2.441
0.045,0.959,0.172,2.502,0.000,-2.319

4.000,3.463,3.919,-609.863,329.956,1.404
0.248,3.559,0.797,-272.705,2.441,135.376
-0.836,1.855,0.237,-177.612,-26.733,77.881
1.049,1.720,-0.750,50.659,-7.751,-45.105
1.410,1.398,-0.880,81.909,-12.268,-150.146
0.842,1.227,-0.523,30.762,-4.883,-111.633
0.302,1.408,-0.181,-31.494,16.602,4.761
0.191,1.260,-0.178,12.817,34.485,51.514
0.060,0.992,0.229,52.795,-0.671,27.344
-0.099,0.712,0.318,67.627,-14.771,-11.841
-0.175,0.606,0.138,63.293,-2.197,-13.794
-0.188,0.584,0.033,53.223,-3.662,-4.456
-0.143,0.619,-0.028,48.035,-15.137,1.648
-0.104,0.657,0.075,44.250,-30.273,4.211
-0.112,0.731,0.108,22.888,-29.907,11.414
-0.067,0.805,0.141,-5.249,-18.433,11.841
-0.007,0.871,0.174,-18.555,-9.521,5.859
0.018,0.943,0.182,-17.456,-4.639,1.404
0.046,0.992,0.173,-11.292,-0.549,-1.526
0.090,1.037,0.128,-5.432,3.052,-2.563
0.100,1.059,0.097,0.793,3.357,-2.197
0.113,1.109,0.081,9.949,0.977,-0.305
0.095,1.092,0.095,18.127,-1.831,0.854
0.074,1.063,0.107,23.071,-2.625,2.380
0.063,1.030,0.101,26.001,-2.319,3.967
0.049,1.008,0.082,27.039,-1.709,6.104
-0.003,0.961,0.089,26.733,-2.136,6.165
-0.023,0.924,0.105,23.376,-0.977,3.540
-0.026,0.876,0.131,17.578,1.465,1.221
-0.030,0.848,0.153,12.878,3.601,1.831
-0.032,0.826,0.168,8.545,5.554,4.028
-0.033,0.840,0.175,6.653,6.226,7.324
0.031,0.887,0.121,1.648,7.507,8.057
0.067,0.979,0.105,-2.075,7.202,5.493
0.070,0.987,0.115,-4.089,7.141,-1.709
0.074,0.998,0.131,-2.319,8.362,-4.089
0.075,1.002,0.145,0.488,9.094,-2.869
0.071,1.002,0.154,3.418,10.498,-0.793
0.076,1.005,0.140,6.165,11.902,0.061
0.106,1.027,0.091,8.911,11.292,-0.793
0.106,1.032,0.059,10.742,7.568,-2.991
0.078,1.015,0.068,11.475,3.296,-4.639
0.052,0.986,0.106,11.841,1.221,-4.700
0.034,0.952,0.137,12.207,1.282,-2.808
0.028,0.927,0.154,12.146,2.197,-0.366
0.038,0.925,0.148,12.146,2.930,0.549
0.052,0.928,0.133,12.085,2.808,0.183
0.049,0.930,0.126,11.841,1.526,-0.732
0.033,0.916,0.130,11.169,0.122,-1.404
0.031,0.914,0.134,9.460,0.427,-0.854
0.045,0.932,0.141,7.019,1.587,-0.427
0.072,0.972,0.148,5.615,2.319,-0.977
0.069,0.974,0.149,6.531,1.648,-1.709
0.064,0.967,0.150,6.897,1.038,-2.075
0.061,0.963,0.153,7.751,0.305,-2.014
0.050,0.947,0.158,8.179,0.000,-2.075
0.044,0.943,0.156,7.507,-0.122,-2.258
0.042,0.936,0.157,6.958,-0.305,-2.319
0.037,0.929,0.156,6.592,-0.305,-2.136
0.033,0.930,0.153,5.920,0.000,-2.014
0.044,0.936,0.148,5.310,0.366,-1.709
0.044,0.938,0.152,4.883,0.488,-1.709
0.035,0.936,0.156,3.845,0.427,-1.343
0.048,0.944,0.149,3.052,0.122,-0.671
0.052,0.946,0.146,2.686,-0.244,-0.366
0.048,0.949,0.149,1.709,-0.427,-0.366
0.053,0.956,0.147,1.221,-0.305,-0.183
0.054,0.955,0.151,1.526,-0.427,-0.305
0.050,0.952,0.157,2.014,-0.671,-0.244
0.043,0.943,0.161,2.258,-0.488,-0.183
0.042,0.947,0.163,2.441,0.061,-0.122
0.050,0.954,0.160,2.869,0.732,-0.244
0.054,0.954,0.163,3.235,0.854,-0.671
0.047,0.953,0.168,3.357,0.793,-0.916
0.047,0.956,0.165,3.662,0.854,-0.793
0.042,0.947,0.160,3.906,0.732,-0.549
0.037,0.943,0.162,3.296,0.549,-0.305
0.040,0.946,0.161,2.747,0.977,-0.244
0.047,0.949,0.159,2.441,1.404,-0.244
0.045,0.946,0.160,1.953,1.404,-0.427
0.049,0.953,0.155,1.526,1.343,-0.488
0.058,0.961,0.151,1.831,0.977,-0.244
0.062,0.959,0.152,2.258,0.305,-0.122
0.059,0.960,0.158,2.380,-0.366,0.061
0.069,0.961,0.154,2.930,-0.549,0.305
0.060,0.950,0.166,3.967,-0.610,0.122
0.049,0.940,0.172,3.723,-0.549,0.000
0.054,0.941,0.167,3.479,0.366,0.427
0.063,0.943,0.163,3.418,0.854,0.366
0.050,0.936,0.164,3.601,0.671,-0.061
0.047,0.937,0.162,3.723,0.610,-0.122
0.051,0.935,0.160,3.357,0.549,-0.183
0.042,0.934,0.168,2.930,0.305,-0.061
0.041,0.935,0.170,2.380,0.488,0.061
0.046,0.936,0.169,1.831,1.038,0.061
0.052,0.945,0.160,0.977,1.282,-0.244
0.057,0.950,0.158,1.282,0.854,-0.427
0.051,0.954,0.167,1.648,0.122,-0.610
0.058,0.958,0.165,1.648,0.244,-0.488
0.058,0.953,0.165,2.136,0.305,-0.427
0.054,0.955,0.163,2.380,0.305,-0.366
0.058,0.950,0.164,2.563,0.244,-0.549
0.049,0.944,0.165,2.686,-0.183,-0.488
0.046,0.941,0.165,2.319,-0.183,-0.488
0.045,0.935,0.164,1.831,-0.183,-0.488
0.044,0.935,0.167,1.221,-0.305,-0.427
0.047,0.938,0.168,0.854,-0.244,-0.305
0.048,0.938,0.171,0.610,-0.244,-0.488
0.049,0.943,0.167,0.183,0.183,-0.244
0.052,0.945,0.162,-0.183,0.366,-0.061
0.053,0.945,0.162,0.000,0.244,-0.061
0.055,0.949,0.160,-0.244,0.305,-0.061
0.053,0.945,0.163,-0.183,0.244,-0.122
0.048,0.946,0.167,-0.244,-0.061,-0.183
0.056,0.949,0.164,-0.244,0.183,-0.061
0.060,0.953,0.162,0.000,0.366,-0.183
0.061,0.954,0.163,0.183,0.061,-0.183
0.058,0.950,0.165,0.671,0.000,-0.366
0.055,0.948,0.163,0.732,-0.244,-0.427

4.000,3.795,2.948,-763.672,498.474,66.284
1.234,3.937,1.546,-426.270,-53.528,159.424
-0.584,1.822,0.686,-75.134,-204.895,75.806
0.576,1.382,-0.501,129.883,-110.901,-13.489
0.955,0.350,-0.814,137.329,-66.956,-118.958
0.492,1.083,-0.536,8.911,-14.160,-48.767
0.396,1.437,-0.220,-24.231,49.133,70.801
0.361,1.482,0.086,5.005,61.829,99.548
0.143,1.160,0.381,28.931,23.743,48.035
-0.058,0.911,0.364,52.368,2.197,-6.775
-0.109,0.565,0.377,71.533,-4.822,-20.935
-0.161,0.594,0.156,38.757,-2.319,10.620
-0.167,0.618,0.059,16.968,-3.906,26.001
-0.167,0.692,0.045,7.263,-11.230,21.545
-0.114,0.722,0.094,0.061,-17.761,9.705
-0.076,0.750,0.159,-9.705,-19.470,8.789
-0.094,0.868,0.225,-16.296,-18.127,12.756
-0.068,0.932,0.264,-17.822,-12.390,8.301
-0.006,0.976,0.263,-17.822,-5.432,2.686
0.046,1.020,0.232,-16.113,-0.610,-0.916
0.077,1.064,0.186,-12.756,1.099,-3.174
0.091,1.088,0.152,-7.935,0.610,-4.272
0.086,1.099,0.137,-2.625,-0.793,-4.822
0.061,1.075,0.131,2.441,-2.258,-5.127
0.029,1.032,0.128,7.019,-2.808,-4.639
0.010,0.999,0.133,9.827,-2.747,-3.784
-0.014,0.962,0.142,9.521,-2.686,-2.747
-0.041,0.916,0.153,7.751,-2.808,-1.953
-0.053,0.893,0.168,4.944,-2.563,-0.427
-0.052,0.878,0.177,2.502,-2.075,0.671
-0.038,0.885,0.180,0.610,-1.343,0.488
-0.025,0.900,0.183,-0.671,-0.244,-0.427
-0.019,0.925,0.188,-1.038,1.099,-1.221
0.016,0.965,0.173,0.122,2.930,-2.197
0.025,0.971,0.163,2.441,3.845,-3.235
0.019,0.987,0.149,3.479,3.723,-3.296
0.029,0.991,0.139,3.906,3.723,-2.441
0.024,0.988,0.131,4.211,2.991,-1.282
0.013,0.986,0.133,4.272,2.869,-0.061
0.004,0.969,0.137,3.418,2.686,0.671
0.001,0.961,0.135,2.441,2.258,1.160
0.012,0.958,0.131,2.136,1.343,1.221
-0.004,0.936,0.142,1.648,0.488,0.916
-0.008,0.933,0.144,0.671,0.488,1.343
-0.002,0.931,0.156,0.183,1.099,1.770
-0.003,0.931,0.165,-0.305,1.831,1.770
0.002,0.939,0.165,-0.244,2.258,1.526
0.016,0.952,0.160,0.427,2.563,0.732
0.021,0.966,0.144,1.160,2.380,-0.305
0.021,0.971,0.139,2.014,1.404,-0.916
0.008,0.969,0.149,2.747,0.610,-1.038
-0.004,0.965,0.168,3.479,0.977,-0.061
-0.010,0.952,0.174,3.906,1.770,0.732
-0.017,0.943,0.171,4.333,2.380,1.282
-0.003,0.947,0.150,4.761,2.625,1.343
0.004,0.953,0.141,4.761,1.709,0.793
0.002,0.956,0.137,4.639,0.305,0.366
-0.001,0.960,0.144,5.066,-0.305,0.977
-0.013,0.952,0.155,5.554,-0.427,2.258
-0.021,0.946,0.158,5.737,0.183,4.150
-0.013,0.939,0.156,5.554,1.221,5.737
0.001,0.946,0.146,5.371,1.587,5.920
0.002,0.949,0.145,5.127,1.160,4.822
0.000,0.950,0.145,4.456,0.549,3.418
-0.007,0.948,0.156,3.845,0.000,2.075
-0.012,0.948,0.162,3.235,-0.122,1.343
-0.006,0.956,0.151,2.991,0.061,1.343
-0.006,0.953,0.135,2.258,-0.305,0.854
-0.012,0.952,0.139,1.221,-0.977,0.183
-0.012,0.948,0.154,0.610,-1.526,0.000
-0.021,0.938,0.170,0.244,-2.014,0.122
-0.032,0.926,0.180,0.000,-1.892,0.366
-0.041,0.917,0.177,0.000,-0.671,0.549
-0.035,0.925,0.172,-0.549,1.587,0.488
-0.007,0.953,0.145,-0.793,3.235,0.061
0.005,0.967,0.126,-0.610,2.258,-0.977
0.007,0.978,0.133,-0.488,0.549,-1.648
0.008,0.978,0.160,-0.305,-0.732,-1.587
-0.001,0.967,0.180,-0.122,-1.160,-1.221
-0.010,0.952,0.183,0.427,-0.793,-0.732
-0.020,0.936,0.174,1.221,0.305,-0.305
-0.030,0.920,0.171,2.197,1.465,-0.122
-0.039,0.913,0.155,2.319,2.930,-0.061
-0.014,0.931,0.137,1.709,3.906,0.000
0.001,0.949,0.138,0.366,3.662,-0.183
-0.004,0.959,0.156,-0.671,2.625,-0.427
-0.008,0.958,0.173,-0.793,2.319,-0.549
-0.006,0.957,0.179,-0.549,2.686,-0.061
0.018,0.980,0.159,0.427,3.052,0.122
0.040,1.000,0.140,1.526,2.136,-0.488
0.020,0.993,0.137,2.197,0.427,-1.648
0.000,0.973,0.149,2.441,-0.488,-1.953
-0.002,0.960,0.156,2.625,-0.427,-1.160
-0.003,0.954,0.171,2.930,-0.244,-0.366
-0.007,0.944,0.173,3.418,0.305,-0.122
-0.009,0.935,0.169,4.028,0.671,-0.366
-0.017,0.926,0.167,3.845,0.793,-0.732
-0.021,0.926,0.166,3.235,0.854,-0.732
-0.014,0.931,0.162,2.625,1.038,-0.793
-0.010,0.939,0.158,2.319,1.038,-0.793
-0.003,0.954,0.161,2.258,0.732,-0.916
0.003,0.964,0.165,2.258,0.549,-0.977
0.010,0.965,0.167,2.563,0.549,-0.977
0.001,0.956,0.171,2.869,0.244,-0.916
-0.001,0.949,0.173,3.052,0.305,-0.366
-0.009,0.938,0.170,3.418,0.366,0.000
-0.012,0.934,0.171,3.662,0.671,0.427
-0.006,0.937,0.174,4.028,0.977,0.732
-0.004,0.942,0.172,4.395,1.160,0.916
-0.006,0.943,0.165,4.456,1.038,1.038
-0.008,0.943,0.166,4.333,0.854,1.282
-0.007,0.941,0.173,3.723,0.977,1.465
-0.001,0.944,0.176,3.174,0.916,1.587
0.001,0.949,0.174,2.625,0.793,1.404
0.000,0.953,0.169,1.892,0.366,0.732
0.000,0.953,0.164,1.160,0.122,0.183
-0.000,0.956,0.165,0.854,0.122,-0.366
-0.003,0.953,0.169,0.549,0.061,-0.854
-0.005,0.950,0.171,0.427,0.000,-1.038

4.000,3.483,3.855,-539.246,407.227,-1.587
0.820,4.000,0.621,-219.971,50.476,89.600
-0.437,2.446,0.211,-141.052,-32.104,19.592
0.991,1.282,-0.599,30.823,-28.748,-114.258
1.091,1.169,-1.104,26.794,15.442,-107.239
0.515,1.337,-0.539,-6.165,4.883,-15.930
0.279,1.230,-0.168,-24.353,-5.188,33.264
0.146,1.101,0.118,35.400,-5.554,60.181
-0.044,0.783,0.370,71.899,-16.052,33.081
-0.153,0.603,0.260,72.510,-1.770,5.859
-0.208,0.549,0.110,60.791,6.897,-2.319
-0.141,0.580,0.037,53.833,0.854,-1.038
-0.159,0.639,0.029,32.471,-10.315,6.348
-0.105,0.752,0.047,8.057,-13.245,10.132
-0.064,0.817,0.091,-8.667,-15.137,3.784
-0.014,0.871,0.143,-13.123,-14.709,-1.587
0.011,0.960,0.166,-13.489,-10.254,-0.916
0.036,1.035,0.148,-11.108,-3.906,0.183
0.069,1.055,0.123,-4.883,-0.061,-2.808
0.091,1.078,0.094,1.099,0.977,-4.211
0.099,1.104,0.076,6.836,0.000,-3.967
0.094,1.095,0.070,12.817,-1.404,-4.272
0.067,1.055,0.079,17.700,-3.784,-4.150
0.049,1.017,0.086,20.874,-4.395,-3.296
0.029,0.967,0.094,24.170,-4.761,-1.648
0.002,0.922,0.093,27.222,-4.700,0.977
-0.008,0.903,0.106,25.513,-3.845,3.052
-0.013,0.892,0.112,20.752,-2.747,2.563
-0.005,0.889,0.118,16.052,-2.319,1.160
-0.010,0.889,0.126,12.207,-2.258,-0.732
-0.003,0.902,0.138,9.033,-1.526,-1.770
-0.002,0.911,0.149,6.226,0.061,-2.258
0.005,0.928,0.149,4.150,2.258,-2.502
0.042,0.965,0.131,3.296,4.150,-2.563
0.067,0.992,0.114,3.418,4.517,-3.235
0.066,1.008,0.104,3.784,3.723,-3.845
0.057,1.018,0.112,4.822,3.357,-3.723
0.039,0.999,0.122,5.981,4.089,-2.747
0.015,0.972,0.120,6.348,4.700,-1.282
0.010,0.953,0.111,5.920,4.761,0.244
0.028,0.948,0.094,4.211,4.211,1.282
0.040,0.947,0.093,2.136,2.319,1.099
0.024,0.942,0.104,0.610,0.183,0.549
0.014,0.930,0.119,-0.061,-0.671,0.610
0.011,0.925,0.133,-0.488,-0.061,0.793
0.010,0.929,0.141,-0.793,1.526,1.038
0.025,0.950,0.125,-0.916,2.869,1.160
0.044,0.966,0.097,-0.549,2.686,0.488
0.063,0.986,0.092,0.000,1.099,-0.305
0.061,0.994,0.109,1.099,-0.366,-0.366
0.051,0.985,0.133,2.441,-0.977,0.061
0.037,0.976,0.146,3.540,-0.732,0.671
0.021,0.953,0.155,4.395,-0.061,0.671
0.010,0.930,0.154,4.700,1.160,0.427
0.001,0.923,0.149,5.188,1.953,0.183
0.014,0.942,0.134,5.615,2.991,-0.122
0.042,0.969,0.109,6.226,3.357,-0.244
0.037,0.971,0.102,6.592,2.380,-0.549
0.024,0.968,0.114,5.737,1.343,-0.305
0.019,0.962,0.130,4.517,1.038,0.427
0.012,0.951,0.142,3.845,1.160,1.282
0.020,0.949,0.134,3.784,1.404,1.648
0.036,0.956,0.117,3.784,1.343,1.343
0.052,0.966,0.099,3.540,0.793,0.488
0.037,0.966,0.102,2.991,-0.427,-0.427
0.027,0.958,0.115,1.709,-1.465,-0.610
0.020,0.949,0.129,0.793,-1.953,-0.122
0.010,0.936,0.140,0.305,-1.953,0.488
0.014,0.943,0.136,0.427,-1.404,0.671
0.033,0.964,0.119,1.160,-1.160,0.122
0.034,0.966,0.107,2.380,-1.282,-0.916
0.028,0.962,0.114,3.113,-1.099,-1.099
0.023,0.956,0.126,2.686,-0.854,-0.549
0.012,0.943,0.140,1.953,-0.549,0.122
0.002,0.932,0.143,1.465,-0.061,0.610
-0.004,0.920,0.145,0.916,0.610,0.610
-0.003,0.924,0.134,0.305,1.587,0.366
0.019,0.949,0.109,-0.427,2.197,-0.183
0.035,0.971,0.097,-0.854,1.709,-0.732
0.040,0.986,0.110,-0.977,0.671,-0.854
0.045,0.988,0.123,-0.854,-0.183,-0.549
0.036,0.976,0.139,0.000,-0.549,0.000
0.027,0.960,0.141,0.671,-0.122,0.488
0.027,0.951,0.138,1.404,0.671,0.549
0.024,0.943,0.132,2.014,1.160,0.244
0.025,0.944,0.116,2.075,1.282,-0.305
0.031,0.946,0.108,1.770,0.671,-0.732
0.028,0.955,0.114,0.977,-0.061,-0.854
0.022,0.961,0.126,1.404,-0.488,-0.549
0.018,0.962,0.136,2.075,-0.427,0.000
0.011,0.953,0.146,2.563,0.305,0.244
0.015,0.945,0.142,2.502,1.282,0.244
0.033,0.959,0.129,2.869,1.648,0.244
0.042,0.964,0.114,3.357,1.221,-0.488
0.034,0.967,0.111,2.930,0.061,-1.282
0.033,0.970,0.121,2.441,-0.977,-1.282
0.021,0.959,0.136,2.502,-1.526,-0.977
0.010,0.956,0.145,2.502,-1.343,-0.366
0.020,0.949,0.139,2.747,-0.549,-0.061
0.025,0.945,0.129,2.686,-0.244,-0.305
0.024,0.945,0.131,2.197,-0.732,-0.671
0.021,0.942,0.135,1.831,-1.160,-0.977
0.010,0.934,0.140,1.160,-1.221,-0.732
0.004,0.929,0.143,0.427,-0.488,-0.549
0.010,0.941,0.140,-0.122,0.549,-0.244
0.034,0.960,0.122,0.244,0.671,-0.366
0.033,0.965,0.117,0.732,-0.061,-0.854
0.036,0.970,0.130,1.221,-0.916,-1.099
0.050,0.972,0.135,1.526,-1.587,-0.977
0.044,0.970,0.139,1.282,-2.075,-0.916
0.032,0.961,0.134,1.648,-2.075,-0.916
0.023,0.950,0.127,2.380,-1.831,-0.916
0.014,0.935,0.129,2.991,-1.282,-0.916
0.011,0.930,0.134,2.380,-0.610,-0.916
0.007,0.925,0.141,1.282,0.183,-0.977
0.005,0.927,0.142,0.488,0.793,-0.793
0.026,0.949,0.128,0.122,1.160,-0.916
0.031,0.957,0.127,-0.061,0.793,-1.465
0.022,0.960,0.132,-0.244,0.549,-1.648

4.000,2.945,4.000,-560.547,439.209,-52.124
2.160,4.000,0.415,-242.310,92.896,68.787
-0.514,2.347,0.182,-159.851,11.169,70.618
1.053,1.891,-0.680,46.570,-20.935,-27.283
1.559,1.981,-1.218,186.584,-33.630,-121.887
0.767,0.868,-0.002,93.689,-62.256,-144.958
0.328,1.096,0.024,-7.935,-18.494,-27.100
0.085,0.726,0.225,-46.936,13.855,48.401
-0.052,0.521,0.268,-33.752,26.367,71.594
-0.256,0.512,0.093,1.648,28.320,82.031
-0.294,0.519,-0.021,30.884,20.203,76.843
-0.196,0.556,-0.028,44.189,7.080,59.875
-0.142,0.684,-0.027,43.030,-4.333,39.429
-0.083,0.721,0.051,36.987,-17.334,10.010
-0.045,0.815,0.108,39.917,-25.024,-10.010
0.000,0.899,0.155,39.246,-23.193,-20.203
0.031,0.947,0.159,27.832,-15.015,-23.071
0.046,1.002,0.144,18.677,-8.423,-17.517
0.080,1.040,0.103,16.724,-3.845,-15.747
0.111,1.069,0.065,12.207,0.610,-13.794
0.117,1.089,0.045,9.583,1.648,-10.925
0.121,1.102,0.047,10.132,0.366,-6.897
0.117,1.090,0.066,12.024,-1.526,-3.479
0.091,1.046,0.086,16.235,-3.113,-1.221
0.072,0.999,0.088,21.851,-4.089,-0.549
0.049,0.954,0.089,26.306,-4.578,-0.549
0.021,0.912,0.100,26.855,-3.906,-0.916
0.016,0.885,0.105,23.682,-2.563,-0.793
0.003,0.863,0.116,19.226,-1.282,-0.305
-0.006,0.857,0.126,13.672,-0.061,-0.122
0.010,0.878,0.129,8.972,0.854,-0.305
0.018,0.891,0.134,5.737,1.221,-1.099
0.035,0.911,0.125,3.662,1.892,-2.319
0.050,0.932,0.125,2.563,2.563,-3.235
0.060,0.951,0.124,2.258,3.418,-3.662
0.068,0.967,0.119,2.441,4.150,-3.723
0.071,0.973,0.113,3.235,4.333,-3.784
0.068,0.980,0.107,3.296,4.700,-3.052
0.085,0.995,0.097,2.991,5.005,-1.892
0.096,1.000,0.095,3.113,4.517,-1.160
0.080,0.991,0.100,3.479,3.357,-0.793
0.073,0.977,0.104,4.028,2.319,-0.366
0.064,0.954,0.112,4.272,1.709,0.305
0.056,0.945,0.120,3.784,1.648,0.732
0.055,0.933,0.121,3.418,1.282,0.793
0.050,0.927,0.125,3.174,0.732,0.671
0.049,0.931,0.129,3.174,0.732,0.549
0.066,0.946,0.127,3.540,0.671,0.000
0.074,0.959,0.129,4.272,0.427,-0.488
0.069,0.962,0.132,5.005,0.305,-1.160
0.064,0.956,0.137,4.822,0.305,-1.221
0.066,0.961,0.139,4.517,0.366,-0.977
0.078,0.968,0.137,4.395,0.366,-0.854
0.078,0.970,0.133,5.005,0.366,-1.343
0.070,0.966,0.130,5.432,0.488,-1.709
0.067,0.961,0.126,5.676,0.427,-1.648
0.067,0.955,0.128,5.310,0.061,-1.221
0.068,0.958,0.129,4.761,-0.427,-0.916
0.069,0.954,0.133,4.578,-1.038,-0.671
0.067,0.953,0.134,4.700,-1.709,-0.366
0.061,0.944,0.132,4.395,-2.136,-0.366
0.049,0.936,0.131,3.540,-2.319,-0.122
0.037,0.924,0.136,2.930,-2.258,0.183
0.042,0.926,0.134,2.319,-1.465,0.488
0.079,0.952,0.118,1.892,-0.549,0.610
0.087,0.960,0.114,1.648,-0.793,-0.183
0.066,0.957,0.125,1.587,-1.648,-0.916
0.057,0.947,0.137,1.587,-1.831,-0.793
0.049,0.939,0.145,1.526,-1.160,-0.122
0.041,0.936,0.144,1.404,-0.122,0.366
0.060,0.951,0.118,1.648,0.793,0.427
0.067,0.945,0.102,2.014,0.671,-0.305
0.051,0.942,0.112,1.526,-0.244,-0.610
0.046,0.940,0.128,0.488,-0.305,-0.183
0.043,0.939,0.143,-0.305,0.122,0.305
0.039,0.935,0.146,-0.793,0.793,0.671
0.048,0.943,0.138,-0.732,1.587,0.793
0.080,0.962,0.120,0.183,2.075,0.305
0.084,0.968,0.112,0.488,1.587,-0.671
0.070,0.965,0.115,0.793,0.732,-1.343
0.064,0.962,0.130,0.793,0.549,-0.854
0.061,0.956,0.138,0.671,1.038,0.061
0.059,0.959,0.134,0.854,1.648,0.671
0.088,0.966,0.111,1.404,1.892,0.671
0.093,0.966,0.108,1.770,1.099,-0.061
0.074,0.958,0.121,1.587,0.305,-0.977
0.062,0.949,0.137,1.465,0.000,-0.854
0.054,0.940,0.146,1.404,0.305,-0.366
0.041,0.929,0.141,0.732,0.854,-0.183
0.046,0.942,0.118,0.305,1.404,-0.305
0.075,0.952,0.108,0.427,1.526,-0.488
0.071,0.958,0.116,0.488,1.404,-0.916
0.066,0.959,0.132,0.427,1.099,-0.916
0.061,0.955,0.144,0.671,1.221,-0.549
0.054,0.949,0.146,0.671,1.892,0.183
0.061,0.954,0.132,0.610,2.136,0.549
0.072,0.957,0.116,0.732,1.648,0.061
0.067,0.956,0.114,0.916,0.549,-0.610
0.059,0.954,0.126,1.038,-0.122,-0.610
0.059,0.950,0.136,0.671,0.122,-0.122
0.059,0.950,0.142,0.122,0.427,0.305
0.073,0.958,0.133,0.183,0.610,0.488
0.084,0.965,0.123,0.305,0.305,0.183
0.081,0.966,0.117,0.366,-0.183,-0.549
0.076,0.969,0.129,0.732,-0.305,-0.916
0.068,0.965,0.137,1.282,-0.427,-0.854
0.059,0.952,0.131,1.709,-0.427,-0.244
0.055,0.946,0.128,1.892,-0.366,-0.061
0.067,0.945,0.130,2.014,-0.122,0.122
0.064,0.941,0.133,1.892,-0.366,-0.183
0.064,0.941,0.133,1.526,-0.549,-0.427
0.060,0.939,0.129,1.404,-0.427,-0.488
0.067,0.946,0.121,1.404,0.061,-0.244
0.078,0.955,0.116,0.977,0.122,-0.305
0.073,0.962,0.118,0.610,-0.122,-0.549
0.069,0.960,0.128,0.305,-0.305,-0.610
0.066,0.960,0.135,0.244,-0.244,-0.732
0.069,0.961,0.137,0.671,0.122,-0.916
0.073,0.959,0.131,1.099,0.427,-1.099

3.998,1.988,4.000,-624.084,628.540,-34.729
3.936,4.000,0.911,-295.166,243.286,54.382
-0.439,2.532,0.302,-165.833,64.758,48.767
0.525,1.567,-0.410,-94.849,-8.301,-46.753
1.488,2.185,-1.321,94.421,-26.978,-125.061
1.191,1.129,-1.187,147.156,-72.876,-173.218
0.231,0.823,0.383,0.732,-125.671,-82.886
-0.089,0.805,0.003,-5.066,-33.020,68.909
-0.125,0.624,0.064,59.387,19.226,136.292
-0.221,0.570,0.328,67.078,23.987,133.362
-0.210,0.630,0.125,36.804,32.898,79.346
-0.143,0.713,-0.052,21.729,22.522,35.950
-0.113,0.636,0.001,24.292,-3.601,11.292
-0.121,0.705,0.085,27.466,-25.879,0.183
-0.100,0.765,0.188,22.095,-32.227,-9.399
-0.042,0.856,0.164,3.418,-14.160,-14.954
0.001,0.942,0.152,-6.653,0.122,-15.869
0.060,1.011,0.114,-3.723,5.066,-13.977
0.091,1.048,0.074,2.563,6.042,-12.146
0.119,1.078,0.045,7.751,5.554,-10.864
0.130,1.095,0.041,13.184,2.747,-8.484
0.131,1.086,0.053,19.775,-0.732,-5.859
0.092,1.037,0.075,25.452,-3.662,-4.395
0.068,0.983,0.088,28.259,-5.432,-3.235
0.058,0.938,0.088,28.625,-6.165,-1.099
0.027,0.899,0.095,28.015,-5.981,0.366
0.007,0.871,0.101,26.611,-4.761,1.892
-0.013,0.859,0.118,22.278,-3.296,2.441
-0.026,0.856,0.137,16.663,-1.343,2.075
-0.005,0.890,0.125,11.597,0.610,0.977
0.056,0.922,0.113,8.606,0.977,-1.221
0.047,0.946,0.131,6.287,-0.244,-3.174
0.034,0.961,0.144,3.845,0.610,-3.601
0.042,0.970,0.159,2.991,3.235,-2.747
0.036,0.974,0.163,3.052,5.920,-2.136
0.029,0.978,0.137,4.089,8.240,-1.587
0.063,0.994,0.082,6.470,8.972,-0.854
0.097,0.993,0.060,7.874,7.263,-0.488
0.084,0.993,0.070,6.042,4.761,-0.610
0.069,0.990,0.095,3.845,3.296,-0.122
0.056,0.978,0.116,2.808,2.808,0.916
0.035,0.945,0.128,2.319,3.296,1.892
0.016,0.917,0.128,1.526,4.456,2.563
0.011,0.913,0.131,0.549,5.615,2.563
0.039,0.929,0.115,0.427,6.531,2.380
0.069,0.947,0.091,0.916,6.165,1.343
0.069,0.958,0.095,0.671,4.395,0.000
0.060,0.967,0.116,-0.122,3.418,-0.366
0.063,0.977,0.131,-0.244,3.357,0.061
0.060,0.979,0.141,0.916,3.540,0.916
0.063,0.988,0.140,2.563,3.784,1.587
0.088,1.000,0.131,5.432,4.211,1.526
0.108,1.009,0.112,8.240,3.723,0.549
0.090,0.995,0.094,9.766,2.319,-0.854
0.074,0.979,0.094,9.827,0.427,-1.526
0.059,0.962,0.113,8.850,-0.488,-1.526
0.047,0.948,0.127,7.935,-1.099,-1.343
0.049,0.948,0.131,7.874,-1.465,-1.038
0.043,0.944,0.137,8.423,-1.770,-1.160
0.043,0.935,0.130,8.301,-1.648,-1.526
0.047,0.937,0.114,7.019,-1.282,-1.648
0.044,0.935,0.107,5.371,-1.648,-1.892
0.033,0.931,0.117,4.150,-2.075,-2.014
0.031,0.927,0.132,2.991,-1.587,-1.160
0.028,0.923,0.144,1.953,-0.977,-0.244
0.022,0.922,0.147,0.977,-0.305,0.549
0.034,0.938,0.132,0.366,0.183,0.854
0.055,0.960,0.109,0.183,0.549,0.244
0.055,0.969,0.102,0.977,-0.183,-0.854
0.060,0.977,0.111,1.587,-0.549,-1.404
0.055,0.975,0.127,2.014,-0.427,-0.854
0.048,0.964,0.138,2.441,-0.427,0.000
0.047,0.957,0.143,2.502,-0.183,0.610
0.049,0.950,0.139,2.869,0.000,0.671
0.040,0.945,0.130,3.052,-0.061,0.122
0.031,0.942,0.119,3.296,-0.061,-0.427
0.045,0.949,0.104,2.991,0.000,-0.549
0.061,0.964,0.105,2.258,-0.488,-0.793
0.060,0.973,0.124,1.465,-1.282,-1.099
0.054,0.969,0.137,1.038,-2.014,-1.160
0.053,0.964,0.141,1.099,-2.258,-0.977
0.057,0.961,0.135,1.099,-2.502,-0.977
0.057,0.960,0.133,1.160,-2.747,-1.282
0.055,0.958,0.137,1.343,-2.930,-1.831
0.057,0.958,0.136,1.648,-3.296,-2.441
0.043,0.943,0.141,1.709,-3.601,-3.235
0.031,0.932,0.141,1.648,-3.174,-3.174
0.030,0.926,0.139,1.526,-1.587,-2.502
0.046,0.937,0.129,1.648,0.122,-1.587
0.053,0.946,0.127,2.075,0.854,-0.610
0.056,0.948,0.131,1.953,0.610,-0.122
0.060,0.952,0.135,1.099,0.488,0.122
0.062,0.951,0.140,0.610,0.183,0.183
0.061,0.951,0.143,0.671,0.000,0.183
0.062,0.952,0.142,1.160,0.061,0.000
0.064,0.954,0.138,1.770,0.244,-0.366
0.057,0.951,0.138,2.380,0.183,-0.610
0.053,0.955,0.139,2.502,0.183,-0.610
0.061,0.957,0.137,2.747,0.305,-0.732
0.055,0.951,0.134,2.869,0.122,-0.977
0.048,0.948,0.136,2.625,-0.305,-0.916
0.052,0.945,0.136,2.197,-0.549,-0.854
0.049,0.943,0.138,1.770,-0.427,-0.488
0.055,0.950,0.135,1.221,-0.305,-0.244
0.056,0.951,0.136,1.099,-0.488,-0.305
0.054,0.956,0.137,0.854,-0.732,-0.366
0.058,0.962,0.139,0.916,-0.793,-0.610
0.064,0.960,0.137,1.465,-0.671,-0.610
0.063,0.959,0.140,1.831,-0.793,-0.671
0.064,0.957,0.143,1.892,-0.610,-0.793
0.065,0.958,0.139,2.014,-0.549,-0.793
0.066,0.957,0.136,2.380,-0.671,-0.977
0.055,0.954,0.139,2.747,-1.038,-1.038
0.055,0.951,0.137,2.991,-1.099,-1.099
0.054,0.948,0.135,2.930,-1.038,-1.099
0.055,0.951,0.134,2.991,-1.282,-1.160
0.059,0.953,0.133,3.052,-1.282,-1.221
0.063,0.955,0.130,3.113,-1.221,-1.465
0.059,0.954,0.133,3.174,-1.221,-2.075

-0.486,-2.333,3.681,-244.141,583.618,22.339
4.000,2.277,4.000,-708.130,688.416,68.054
2.341,4.000,0.249,-307.617,232.361,109.253
-0.892,1.796,0.798,-148.437,-88.806,54.565
0.686,1.219,-0.655,64.880,-64.941,-9.521
1.087,1.391,-1.080,133.423,-60.181,-69.641
0.632,1.105,-0.342,94.055,-90.332,-84.045
-0.006,0.931,0.297,-8.240,-48.584,-18.616
0.244,0.808,0.070,-33.447,64.575,91.614
0.120,1.225,0.414,17.883,42.664,158.264
-0.199,0.992,0.330,36.682,12.695,92.529
-0.228,0.665,0.149,32.349,5.615,9.705
-0.145,0.581,0.030,39.612,-5.310,-11.841
-0.187,0.700,0.120,29.419,-21.912,-5.188
-0.140,0.750,0.117,9.399,-14.099,-4.333
-0.066,0.819,0.165,-1.160,-6.592,-6.104
-0.030,0.887,0.213,-1.526,-4.883,-7.019
-0.018,0.943,0.208,-0.977,-2.686,-6.226
-0.000,0.978,0.177,-1.282,-0.732,-5.249
0.030,1.008,0.150,-0.671,-0.488,-5.310
0.072,1.050,0.130,2.258,-1.648,-4.944
0.093,1.080,0.122,7.629,-3.113,-4.883
0.107,1.073,0.128,13.428,-4.028,-4.822
0.091,1.032,0.153,16.846,-4.395,-3.784
0.057,0.983,0.170,18.127,-3.784,-2.258
0.038,0.947,0.156,19.287,-2.869,-1.343
0.020,0.908,0.144,20.264,-2.380,-1.221
0.001,0.877,0.155,20.264,-2.014,-1.282
-0.010,0.860,0.172,16.907,-0.549,-1.404
-0.015,0.849,0.195,12.817,0.671,-1.282
-0.016,0.862,0.206,9.460,2.136,-1.343
0.004,0.896,0.186,7.812,3.601,-1.709
0.046,0.934,0.151,6.653,3.967,-2.869
0.057,0.964,0.151,5.615,3.479,-3.906
0.055,0.982,0.168,3.845,3.113,-3.845
0.056,0.985,0.184,2.014,3.357,-2.686
0.048,0.980,0.191,1.404,4.028,-1.709
0.044,0.974,0.187,2.014,4.639,-1.221
0.039,0.965,0.170,2.563,4.944,-0.916
0.025,0.951,0.152,2.197,4.700,-0.854
0.037,0.957,0.134,2.014,4.272,-0.732
0.047,0.954,0.143,2.014,3.418,-0.977
0.037,0.955,0.162,1.221,2.869,-0.610
0.046,0.968,0.176,1.038,3.174,0.183
0.061,0.969,0.179,1.831,3.540,0.244
0.056,0.969,0.178,3.540,3.235,-0.122
0.062,0.969,0.174,5.493,2.930,-0.671
0.057,0.968,0.163,6.714,2.563,-1.282
0.048,0.951,0.164,7.385,1.465,-1.770
0.042,0.946,0.179,7.690,1.038,-1.404
0.034,0.933,0.194,7.812,0.977,-1.221
0.032,0.933,0.191,8.240,1.160,-0.854
0.042,0.939,0.183,8.545,0.793,-1.160
0.040,0.939,0.183,8.545,-0.244,-1.648
0.032,0.934,0.193,8.179,-0.977,-2.014
0.027,0.931,0.203,7.507,-1.221,-1.709
0.030,0.935,0.197,6.836,-0.732,-1.282
0.040,0.948,0.189,6.226,-0.366,-1.221
0.044,0.954,0.187,6.104,-0.732,-1.526
0.040,0.950,0.186,6.104,-1.404,-1.648
0.045,0.955,0.181,6.348,-1.526,-1.587
0.053,0.956,0.186,6.470,-1.648,-1.465
0.052,0.953,0.195,6.104,-1.953,-1.526
0.049,0.949,0.192,5.676,-2.136,-1.404
0.044,0.943,0.191,5.676,-2.258,-1.221
0.033,0.931,0.186,5.493,-2.319,-0.977
0.024,0.919,0.183,4.944,-2.319,-0.671
0.011,0.905,0.180,3.967,-1.953,-0.549
0.002,0.901,0.193,2.930,-1.099,-0.488
0.008,0.909,0.198,1.831,0.244,-0.244
0.019,0.922,0.202,1.221,1.160,-0.122
0.026,0.934,0.201,1.221,1.465,-0.732
0.031,0.940,0.202,1.404,1.465,-1.404
0.042,0.956,0.194,1.709,1.343,-1.465
0.048,0.961,0.192,2.197,1.282,-1.404
0.038,0.956,0.195,2.625,0.977,-1.465
0.036,0.953,0.194,2.625,0.854,-0.977
0.035,0.948,0.197,2.563,0.916,-0.793
0.036,0.949,0.193,2.808,1.221,-0.854
0.032,0.941,0.200,3.235,1.465,-1.038
0.033,0.936,0.197,3.174,1.892,-1.282
0.036,0.935,0.194,2.930,2.197,-1.343
0.032,0.932,0.193,2.625,2.258,-1.526
0.034,0.939,0.190,2.563,2.319,-1.404
0.040,0.935,0.195,2.136,2.319,-1.282
0.038,0.936,0.201,1.709,2.319,-1.160
0.050,0.948,0.198,1.709,1.953,-1.221
0.054,0.951,0.196,1.892,1.404,-1.404
0.055,0.953,0.195,2.319,0.793,-1.709
0.052,0.951,0.205,2.930,0.305,-1.831
0.048,0.950,0.204,3.662,0.488,-1.709
0.046,0.945,0.205,4.028,0.732,-1.526
0.043,0.936,0.210,4.089,0.977,-1.404
0.046,0.937,0.207,4.517,1.221,-1.404
0.052,0.941,0.196,4.761,1.038,-1.587
0.049,0.939,0.199,4.700,0.244,-1.953
0.041,0.936,0.200,4.395,-0.427,-1.953
0.035,0.931,0.206,4.150,-0.610,-1.404
0.044,0.935,0.206,3.723,-0.305,-0.916
0.043,0.931,0.209,3.784,0.061,-0.549
0.036,0.927,0.212,3.479,0.244,-0.671
0.041,0.930,0.211,2.991,0.793,-1.038
0.052,0.941,0.207,2.808,1.038,-1.404
0.043,0.940,0.207,2.747,0.549,-1.831
0.049,0.946,0.206,2.686,0.183,-1.831
0.050,0.942,0.208,2.563,0.244,-1.526
0.047,0.944,0.210,2.441,0.122,-1.221
0.049,0.947,0.208,2.686,-0.061,-0.977
0.048,0.937,0.209,2.930,0.000,-1.038
0.047,0.938,0.209,2.625,0.305,-0.977
0.051,0.937,0.210,2.319,0.610,-0.854
0.049,0.933,0.214,2.380,0.977,-0.916
0.048,0.931,0.218,2.563,1.038,-0.916
0.050,0.932,0.216,2.808,1.343,-1.038
0.047,0.930,0.216,3.052,1.465,-1.160
0.049,0.930,0.211,3.357,1.709,-1.038
0.053,0.932,0.207,3.479,1.587,-0.916
0.050,0.934,0.207,3.174,1.465,-1.038
0.057,0.942,0.203,2.869,1.404,-1.099

4.000,4.000,2.891,-657.593,466.492,33.142
0.054,3.730,1.022,-193.115,15.503,111.450
-0.341,1.455,-0.053,-74.707,-61.035,57.434
1.475,1.457,-0.997,110.901,-24.963,-21.301
1.040,1.143,-0.879,79.224,-39.368,-76.233
0.321,1.322,-0.006,-16.113,-39.307,-22.095
0.247,1.103,-0.071,-19.775,17.761,53.284
0.121,1.020,0.217,27.161,19.226,74.707
-0.077,0.790,0.369,59.570,8.606,33.997
-0.051,0.572,0.229,66.895,9.155,-10.437
-0.176,0.615,0.144,44.617,0.122,-2.075
-0.174,0.635,0.069,16.968,-3.479,15.625
-0.127,0.685,0.035,5.859,-10.498,18.860
-0.091,0.741,0.110,1.099,-18.433,12.268
-0.054,0.823,0.176,-3.357,-17.761,6.165
0.003,0.936,0.212,-6.836,-10.681,3.540
0.053,1.018,0.202,-5.981,-4.150,-0.366
0.083,1.056,0.176,-2.014,-0.366,-4.944
0.089,1.062,0.157,2.869,2.197,-7.568
0.092,1.079,0.140,8.118,3.845,-7.141
0.106,1.103,0.114,13.733,3.479,-5.554
0.115,1.086,0.077,19.043,0.671,-4.822
0.084,1.037,0.087,23.254,-3.174,-4.395
0.040,0.970,0.123,25.146,-5.249,-3.418
0.008,0.905,0.153,25.024,-4.883,-1.160
-0.020,0.861,0.172,23.621,-3.723,1.526
-0.032,0.827,0.174,19.287,-1.770,2.014
-0.026,0.828,0.145,14.221,0.183,1.648
0.013,0.851,0.125,8.972,0.549,0.977
0.036,0.883,0.138,3.479,0.183,-0.488
0.043,0.913,0.169,-0.122,0.000,-1.282
0.053,0.934,0.197,-2.014,1.099,-0.732
0.054,0.943,0.203,-2.563,3.052,0.061
0.046,0.943,0.198,-2.258,5.615,0.366
0.049,0.954,0.191,-1.526,8.606,-0.061
0.072,0.976,0.168,-0.122,10.864,-0.183
0.113,1.015,0.123,1.953,11.169,-0.671
0.124,1.028,0.085,3.784,8.850,-1.953
0.093,1.024,0.092,3.967,5.310,-2.502
0.070,1.010,0.123,3.052,3.540,-1.526
0.051,0.976,0.147,3.113,3.052,0.366
0.034,0.949,0.164,3.662,2.747,1.404
0.035,0.934,0.161,4.517,2.808,2.197
0.053,0.931,0.142,5.310,3.235,2.014
0.059,0.928,0.125,5.310,2.869,1.038
0.058,0.929,0.124,4.456,1.831,0.427
0.064,0.939,0.132,3.235,0.427,0.061
0.069,0.953,0.142,2.319,-1.282,0.061
0.066,0.959,0.150,2.502,-2.991,-0.183
0.065,0.968,0.157,4.517,-3.723,-0.244
0.059,0.954,0.171,6.165,-3.235,-0.366
0.048,0.946,0.173,6.409,-2.014,-0.610
0.041,0.936,0.170,6.592,-1.282,-0.732
0.038,0.929,0.166,5.981,-0.977,-0.793
0.039,0.932,0.155,5.066,-1.099,-1.038
0.044,0.940,0.140,4.272,-1.709,-1.587
0.037,0.947,0.131,3.540,-2.563,-2.014
0.037,0.953,0.135,3.052,-3.357,-2.136
0.055,0.958,0.150,2.686,-3.479,-1.953
0.065,0.965,0.158,2.014,-3.662,-1.526
0.066,0.972,0.159,1.831,-4.028,-1.404
0.064,0.962,0.162,2.502,-4.333,-1.587
0.052,0.953,0.160,3.052,-4.211,-1.587
0.047,0.945,0.161,3.418,-3.845,-1.587
0.043,0.935,0.164,3.540,-3.052,-1.404
0.040,0.934,0.166,3.357,-2.197,-1.526
0.048,0.943,0.161,3.418,-1.526,-1.770
0.047,0.936,0.164,3.357,-1.587,-2.075
0.039,0.936,0.158,2.625,-0.854,-2.197
0.044,0.944,0.161,1.831,-0.244,-2.014
0.038,0.945,0.166,1.343,0.000,-1.831
0.035,0.940,0.164,1.770,0.305,-1.465
0.045,0.939,0.163,2.380,0.427,-1.099
0.065,0.952,0.165,2.686,0.366,-1.221
0.069,0.959,0.167,2.930,0.122,-1.709
0.063,0.958,0.169,2.869,-0.061,-1.892
0.054,0.949,0.173,2.930,0.183,-1.404
0.048,0.944,0.176,3.113,0.916,-0.977
0.056,0.947,0.163,3.113,1.587,-0.793
0.053,0.943,0.153,3.296,1.465,-1.160
0.052,0.949,0.157,3.113,0.977,-1.343
0.052,0.944,0.165,2.686,0.793,-1.404
0.051,0.941,0.174,2.319,0.916,-1.404
0.046,0.933,0.179,1.892,1.343,-1.282
0.042,0.927,0.185,1.465,1.709,-0.977
0.036,0.923,0.180,1.282,2.319,-0.671
0.041,0.933,0.162,1.038,2.625,-0.610
0.071,0.959,0.142,0.549,2.441,-0.671
0.069,0.965,0.156,0.305,1.465,-1.221
0.073,0.976,0.170,0.488,1.221,-1.099
0.077,0.973,0.180,1.526,1.221,-0.732
0.065,0.959,0.186,2.808,1.404,-0.610
0.054,0.944,0.189,3.906,1.831,-0.488
0.045,0.928,0.187,4.883,2.625,-0.366
0.021,0.906,0.176,4.883,3.113,-0.366
0.030,0.915,0.151,3.845,3.296,0.061
0.067,0.937,0.138,2.075,2.747,-0.061
0.052,0.946,0.157,0.610,1.221,-0.671
0.049,0.954,0.182,-0.061,0.916,-0.610
0.055,0.950,0.192,0.305,1.404,0.122
0.051,0.940,0.194,0.549,1.953,0.488
0.043,0.931,0.192,1.221,2.686,0.793
0.036,0.921,0.185,1.709,3.357,0.854
0.047,0.932,0.168,2.014,3.784,1.038
0.081,0.955,0.145,1.831,3.601,0.854
0.081,0.969,0.150,1.587,2.563,0.122
0.082,0.980,0.165,1.709,1.648,-0.427
0.083,0.974,0.180,2.625,1.343,-0.488
0.072,0.963,0.184,3.113,1.282,-0.183
0.071,0.958,0.169,3.479,0.977,-0.244
0.073,0.949,0.158,3.662,0.122,-0.549
0.058,0.935,0.160,2.991,-0.732,-1.099
0.047,0.926,0.173,2.136,-1.160,-1.221
0.047,0.929,0.178,0.977,-0.916,-0.977
0.052,0.936,0.183,0.671,-0.427,-0.916
0.061,0.946,0.180,0.732,-0.183,-1.221
0.062,0.950,0.180,1.160,-0.061,-1.465
0.066,0.953,0.178,1.343,0.122,-1.648
0.064,0.953,0.176,1.526,0.183,-1.587

4.000,3.877,3.533,-701.599,455.200,-6.836
0.247,4.000,0.736,-198.364,39.246,114.441
-0.597,1.533,0.112,-124.207,-4.456,58.838
1.531,1.452,-1.030,126.343,-1.282,-59.143
1.442,1.282,-0.913,94.727,-36.865,-146.240
0.708,1.381,-0.148,3.296,-53.040,-91.248
0.085,1.237,0.175,-60.913,-12.207,4.944
0.206,0.828,-0.037,-26.062,52.002,51.758
0.066,0.727,0.139,21.484,30.457,70.251
-0.123,0.821,0.177,36.133,6.409,53.894
-0.146,0.638,0.065,32.776,5.127,20.813
-0.114,0.603,-0.055,28.687,1.221,11.047
-0.108,0.631,-0.020,23.437,-17.578,11.414
-0.039,0.706,0.073,22.583,-35.034,9.094
-0.054,0.770,0.189,20.264,-39.734,3.967
0.001,0.845,0.182,7.935,-23.560,-6.592
0.046,0.926,0.170,-5.920,-5.981,-10.071
0.089,0.974,0.130,-9.827,2.869,-9.033
0.107,1.008,0.087,-8.423,5.920,-7.263
0.136,1.046,0.047,-5.188,7.812,-6.104
0.163,1.088,0.036,1.099,5.127,-5.066
0.199,1.117,0.014,8.484,1.099,-4.089
0.165,1.104,0.036,15.137,-2.991,-3.052
0.130,1.052,0.063,19.592,-5.432,-2.197
0.105,0.985,0.078,20.752,-5.127,-0.671
0.065,0.924,0.091,19.348,-3.723,2.625
0.054,0.900,0.087,18.311,-2.075,6.897
0.048,0.877,0.083,16.235,-1.648,10.193
0.030,0.874,0.096,13.062,-1.465,10.864
0.022,0.870,0.116,8.240,-0.244,8.789
0.020,0.868,0.141,4.639,1.221,4.761
0.020,0.868,0.151,2.014,3.540,1.160
0.026,0.884,0.148,1.404,6.409,-0.061
0.049,0.920,0.127,1.282,9.583,-0.732
0.112,0.968,0.073,1.709,11.475,-1.892
0.166,1.002,0.019,2.319,10.315,-3.418
0.162,1.038,0.029,1.770,6.287,-4.272
0.149,1.054,0.059,0.366,3.784,-4.028
0.142,1.049,0.078,0.000,3.723,-1.892
0.130,1.021,0.093,0.977,3.235,0.549
0.115,0.999,0.095,2.502,2.441,1.587
0.125,0.990,0.080,4.944,1.465,1.709
0.124,0.966,0.065,7.629,-0.610,0.793
0.097,0.944,0.080,8.789,-2.563,-0.183
0.075,0.924,0.106,8.484,-2.991,-0.122
0.061,0.907,0.124,7.507,-2.380,0.427
0.054,0.899,0.132,6.348,-1.099,1.038
0.061,0.905,0.128,5.310,0.183,1.160
0.101,0.942,0.098,5.432,0.793,0.366
0.126,0.965,0.067,6.165,0.000,-1.160
0.104,0.972,0.077,6.042,-2.014,-2.625
0.101,0.981,0.099,5.493,-1.892,-2.869
0.106,0.986,0.117,5.249,-0.854,-2.014
0.114,0.986,0.118,5.554,-0.366,-1.404
0.116,0.982,0.112,6.592,-0.793,-1.587
0.099,0.971,0.102,7.507,-1.465,-2.319
0.081,0.948,0.105,7.690,-2.197,-2.991
0.061,0.925,0.116,6.470,-2.014,-2.930
0.049,0.911,0.120,4.761,-1.160,-2.258
0.064,0.915,0.109,3.540,-0.488,-1.526
0.075,0.922,0.098,2.625,-0.854,-1.282
0.086,0.936,0.094,2.075,-1.526,-1.404
0.088,0.947,0.099,1.648,-2.014,-1.831
0.091,0.955,0.103,0.854,-2.075,-1.587
0.088,0.951,0.108,0.427,-2.136,-1.465
0.080,0.947,0.115,0.183,-2.075,-0.916
0.083,0.947,0.111,0.244,-1.465,-0.427
0.093,0.949,0.097,0.549,-0.916,-0.427
0.088,0.949,0.097,0.549,-1.221,-0.977
0.089,0.952,0.103,0.610,-1.038,-1.404
0.087,0.954,0.107,0.854,-0.610,-1.831
0.087,0.954,0.111,0.793,-0.305,-2.136
0.081,0.949,0.114,1.343,0.061,-2.075
0.074,0.940,0.118,1.587,0.549,-1.587
0.075,0.939,0.116,1.709,1.221,-1.038
0.099,0.953,0.093,1.770,1.892,-1.099
0.096,0.949,0.087,1.709,1.465,-1.709
0.086,0.952,0.096,1.160,0.732,-2.136
0.086,0.958,0.104,0.488,0.732,-2.075
0.093,0.961,0.105,0.061,1.038,-1.953
0.097,0.960,0.108,0.183,1.160,-1.831
0.102,0.959,0.109,1.038,0.977,-1.221
0.100,0.957,0.108,1.587,0.854,-1.038
0.105,0.957,0.101,1.770,0.854,-1.099
0.107,0.957,0.096,1.892,0.610,-1.221
0.099,0.954,0.099,1.526,0.488,-1.526
0.094,0.954,0.108,1.648,0.366,-1.404
0.092,0.952,0.117,1.770,0.366,-1.404
0.086,0.942,0.120,1.526,0.488,-1.282
0.087,0.940,0.112,1.221,0.977,-1.221
0.099,0.948,0.110,0.854,1.587,-1.160
0.093,0.950,0.107,0.793,1.343,-1.465
0.093,0.955,0.101,0.793,0.854,-1.343
0.097,0.952,0.105,0.732,0.488,-1.343
0.094,0.951,0.116,0.488,-0.061,-1.465
0.092,0.947,0.123,-0.549,-0.549,-1.587
0.099,0.950,0.120,-1.343,-0.427,-1.770
0.094,0.948,0.110,-1.709,-0.366,-1.831
0.089,0.944,0.106,-1.587,-0.488,-1.770
0.095,0.940,0.105,-1.831,-0.183,-1.953
0.094,0.936,0.107,-2.808,0.183,-2.075
0.085,0.938,0.117,-4.211,0.610,-2.075
0.081,0.933,0.124,-5.188,1.404,-2.136
0.081,0.936,0.132,-5.981,2.563,-2.197
0.090,0.938,0.137,-6.897,3.723,-2.197
0.105,0.954,0.135,-7.324,5.371,-2.197
0.120,0.971,0.140,-7.385,6.409,-2.441
0.133,0.989,0.151,-6.714,7.874,-2.625
0.147,1.014,0.155,-5.371,9.644,-2.991
0.161,1.027,0.151,-3.113,10.986,-3.601
0.171,1.042,0.152,-0.610,11.658,-3.418
0.173,1.045,0.161,0.549,11.658,-2.869
0.172,1.040,0.167,0.000,10.559,-0.854
0.189,1.035,0.171,-2.686,7.568,2.319
0.196,1.015,0.197,-6.348,2.380,6.958
0.195,0.996,0.221,-10.071,-5.310,13.245
0.205,0.979,0.252,-10.498,-14.771,19.775
0.211,0.986,0.302,-7.996,-26.001,25.208
0.206,0.987,0.355,-5.066,-37.415,28.381

4.000,3.984,3.618,-544.373,464.844,-32.654
1.621,4.000,0.475,-143.555,105.164,-16.174
-0.643,1.500,0.171,-145.020,6.714,-41.992
0.848,1.139,-0.849,7.751,-21.057,-83.862
1.178,1.244,-0.908,39.063,-38.513,-92.163
0.506,1.321,-0.335,19.348,-77.698,-42.603
0.071,1.211,0.094,20.813,-81.177,-4.395
0.040,1.015,-0.115,54.565,-19.836,15.747
-0.016,0.832,0.004,68.542,15.930,21.240
-0.026,0.682,0.058,60.486,36.133,15.625
0.069,0.575,0.171,36.438,41.626,13.367
0.040,0.641,0.172,14.221,25.391,19.165
-0.094,0.686,0.111,3.418,3.235,29.175
-0.071,0.724,0.075,-1.709,-12.329,30.334
-0.058,0.801,0.086,-2.136,-20.874,23.621
-0.025,0.859,0.098,-1.892,-18.127,11.841
0.053,0.932,0.099,-2.563,-8.911,-1.404
0.101,1.000,0.082,-1.160,-0.732,-10.803
0.118,1.041,0.051,3.845,3.784,-15.137
0.133,1.069,0.037,8.911,4.700,-14.771
0.137,1.096,0.028,11.780,3.723,-11.353
0.140,1.086,0.027,14.526,1.465,-7.141
0.121,1.063,0.040,16.663,-1.160,-2.991
0.109,1.019,0.052,17.151,-2.502,0.610
0.091,0.967,0.065,16.846,-2.563,2.563
0.064,0.927,0.070,15.442,-2.258,3.357
0.057,0.900,0.066,13.245,-1.587,3.113
0.058,0.890,0.069,10.559,-0.916,1.770
0.044,0.884,0.094,7.812,-0.732,0.488
0.030,0.883,0.118,5.493,0.061,-0.427
0.034,0.900,0.114,3.601,1.770,-0.732
0.064,0.925,0.086,2.930,3.540,-1.221
0.087,0.953,0.081,2.869,4.761,-2.014
0.094,0.978,0.091,2.991,5.493,-2.502
0.103,0.983,0.094,4.211,6.042,-2.808
0.099,0.988,0.092,5.859,6.470,-2.686
0.102,0.995,0.088,7.263,6.897,-2.197
0.114,1.000,0.079,8.484,7.019,-1.465
0.130,1.012,0.054,9.949,5.920,-0.549
